
> # Load libraries
> library(dplyr)

> library(stringr)

> library(admiral)

> library(pharmaversesdtm)

> # Load source datasets
> dm <- pharmaversesdtm::dm

> vs <- pharmaversesdtm::vs

> ex <- pharmaversesdtm::ex

> ds <- pharmaversesdtm::ds

> ae <- pharmaversesdtm::ae

> # Convert blank character values to NA
> dm <- convert_blanks_to_na(dm)

> ds <- convert_blanks_to_na(ds)

> ex <- convert_blanks_to_na(ex)

> ae <- convert_blanks_to_na(ae)

> vs <- convert_blanks_to_na(vs)

> # Using DM as the basis for ADSL
> 
> adsl <- dm %>%
+   select(-DOMAIN)

> # Age grouping into categorical variable AGEGR9 and numeric variable AGEGR9N
> 
> agegr9_lookup <- exprs(
+   ~condition,           ~AGEGR9,
+   AGE .... [TRUNCATED] 

> adsl <- adsl %>%
+   # Create categorical age groups
+   derive_vars_cat(
+     definition = agegr9_lookup
+   ) %>%
+   # Create numerical categori .... [TRUNCATED] 

> # Derive treatment start date-time (TRTSDTM) and time flag (TRTSTMF) from EX
> 
> ex_ext <- ex %>%
+   derive_vars_dtm(
+     dtc = EXSTDTC,
+     n .... [TRUNCATED] 

> # View(ex_ext)
> 
> adsl <- adsl %>%
+   derive_vars_merged(
+     dataset_add = ex_ext,
+     filter_add = (EXDOSE > 0 |
+                     (EXD .... [TRUNCATED] 

> View(adsl %>% select(USUBJID, starts_with("TRT")))  

> # Flag identifying patients who have been randomized (ITTFL)
> adsl <- adsl %>%
+   derive_var_merged_exist_flag(
+     dataset_add = dm,
+     by = .... [TRUNCATED] 

> # Set to the last date patient has documented clinical data
> 
> # Check for last known live date 
> adsl <- adsl %>%
+   derive_vars_extreme_event( .... [TRUNCATED] 

> save(adsl, file = file.path("adsl.rda"))

> sink()
ex <- convert_blanks_to_na(ex)

> ae <- convert_blanks_to_na(ae)

> vs <- convert_blanks_to_na(vs)

> # Using DM as the basis for ADSL
> 
> adsl <- dm %>%
+   select(-DOMAIN)

> # Age grouping into categorical variable AGEGR9 and numeric variable AGEGR9N
> 
> agegr9_lookup <- exprs(
+   ~condition,           ~AGEGR9,
+   AGE .... [TRUNCATED] 

> adsl <- adsl %>%
+   # Create categorical age groups
+   derive_vars_cat(
+     definition = agegr9_lookup
+   ) %>%
+   # Create numerical categori .... [TRUNCATED] 

> # Derive treatment start date-time (TRTSDTM) and time flag (TRTSTMF) from EX
> 
> ex_ext <- ex %>%
+   derive_vars_dtm(
+     dtc = EXSTDTC,
+     n .... [TRUNCATED] 

> # View(ex_ext)
> 
> adsl <- adsl %>%
+   derive_vars_merged(
+     dataset_add = ex_ext,
+     filter_add = (EXDOSE > 0 |
+                     (EXD .... [TRUNCATED] 

> View(adsl %>% select(USUBJID, starts_with("TRT")))  

> # Flag identifying patients who have been randomized (ITTFL)
> adsl <- adsl %>%
+   derive_var_merged_exist_flag(
+     dataset_add = dm,
+     by = .... [TRUNCATED] 

> # Set to the last date patient has documented clinical data
> 
> # Check for last known live date 
> adsl <- adsl %>%
+   derive_vars_extreme_event( .... [TRUNCATED] 

> save(adsl, file = file.path("adsl.rda"))

> sink()
[1] "/Users/itzcmy/Desktop/Genentech/question_2_adam"
[1] 107
[1] 225
# A tibble: 1,122 × 108
   STUDYID   DOMAIN USUBJID AESEQ AESPID AETERM AELLT AELLTCD AEDECOD AEPTCD AEHLT
   <chr>     <chr>  <chr>   <dbl> <chr>  <chr>  <chr>   <dbl> <chr>    <dbl> <chr>
 1 CDISCPIL… AE     01-701…     1 E07    APPLI… APPL…      NA APPLIC…     NA HLT_…
 2 CDISCPIL… AE     01-701…     2 E08    APPLI… APPL…      NA APPLIC…     NA HLT_…
 3 CDISCPIL… AE     01-701…     3 E06    DIARR… DIAR…      NA DIARRH…     NA HLT_…
 4 CDISCPIL… AE     01-701…     2 E09    ERYTH… LOCA…      NA ERYTHE…     NA HLT_…
 5 CDISCPIL… AE     01-701…     1 E08    ERYTH… ERYT…      NA ERYTHE…     NA HLT_…
 6 CDISCPIL… AE     01-701…     4 E08    ERYTH… ERYT…      NA ERYTHE…     NA HLT_…
 7 CDISCPIL… AE     01-701…     3 E10    ATRIO… AV B…      NA ATRIOV…     NA HLT_…
 8 CDISCPIL… AE     01-701…     1 E04    APPLI… APPL…      NA APPLIC…     NA HLT_…
 9 CDISCPIL… AE     01-701…     2 E05    APPLI… APPL…      NA APPLIC…     NA HLT_…
10 CDISCPIL… AE     01-701…     1 E08    APPLI… APPL…      NA APPLIC…     NA HLT_…
# ℹ 1,112 more rows
# ℹ 97 more variables: AEHLTCD <dbl>, AEHLGT <chr>, AEHLGTCD <dbl>,
#   AEBODSYS <chr>, AEBDSYCD <dbl>, AESOC <chr>, AESOCCD <dbl>, AESEV <chr>,
#   AESER <chr>, AEACN <chr>, AEREL <chr>, AEOUT <chr>, AESCAN <chr>,
#   AESCONG <chr>, AESDISAB <chr>, AESDTH <chr>, AESHOSP <chr>, AESLIFE <chr>,
#   AESOD <chr>, AEDTC <chr>, AESTDTC <chr>, AEENDTC <chr>, AESTDY <dbl>,
#   AEENDY <dbl>, TRTSDT <date>, TRTEDT <date>, DTHDT <date>, EOSDT <date>, …
# ℹ Use `print(n = ...)` to see more rows
# A tibble: 0 × 108
# ℹ 108 variables: STUDYID <chr>, DOMAIN <chr>, USUBJID <chr>, AESEQ <dbl>,
#   AESPID <chr>, AETERM <chr>, AELLT <chr>, AELLTCD <dbl>, AEDECOD <chr>,
#   AEPTCD <dbl>, AEHLT <chr>, AEHLTCD <dbl>, AEHLGT <chr>, AEHLGTCD <dbl>,
#   AEBODSYS <chr>, AEBDSYCD <dbl>, AESOC <chr>, AESOCCD <dbl>, AESEV <chr>,
#   AESER <chr>, AEACN <chr>, AEREL <chr>, AEOUT <chr>, AESCAN <chr>,
#   AESCONG <chr>, AESDISAB <chr>, AESDTH <chr>, AESHOSP <chr>, AESLIFE <chr>,
#   AESOD <chr>, AEDTC <chr>, AESTDTC <chr>, AEENDTC <chr>, AESTDY <dbl>, …
# ℹ Use `colnames()` to see all variable names
# A tibble: 1,122 × 109
   STUDYID   DOMAIN USUBJID AESEQ AESPID AETERM AELLT AELLTCD AEDECOD AEPTCD AEHLT
   <chr>     <chr>  <chr>   <dbl> <chr>  <chr>  <chr>   <dbl> <chr>    <dbl> <chr>
 1 CDISCPIL… AE     01-701…     1 E07    APPLI… APPL…      NA APPLIC…     NA HLT_…
 2 CDISCPIL… AE     01-701…     2 E08    APPLI… APPL…      NA APPLIC…     NA HLT_…
 3 CDISCPIL… AE     01-701…     3 E06    DIARR… DIAR…      NA DIARRH…     NA HLT_…
 4 CDISCPIL… AE     01-701…     2 E09    ERYTH… LOCA…      NA ERYTHE…     NA HLT_…
 5 CDISCPIL… AE     01-701…     1 E08    ERYTH… ERYT…      NA ERYTHE…     NA HLT_…
 6 CDISCPIL… AE     01-701…     4 E08    ERYTH… ERYT…      NA ERYTHE…     NA HLT_…
 7 CDISCPIL… AE     01-701…     3 E10    ATRIO… AV B…      NA ATRIOV…     NA HLT_…
 8 CDISCPIL… AE     01-701…     1 E04    APPLI… APPL…      NA APPLIC…     NA HLT_…
 9 CDISCPIL… AE     01-701…     2 E05    APPLI… APPL…      NA APPLIC…     NA HLT_…
10 CDISCPIL… AE     01-701…     1 E08    APPLI… APPL…      NA APPLIC…     NA HLT_…
# ℹ 1,112 more rows
# ℹ 98 more variables: AEHLTCD <dbl>, AEHLGT <chr>, AEHLGTCD <dbl>,
#   AEBODSYS <chr>, AEBDSYCD <dbl>, AESOC <chr>, AESOCCD <dbl>, AESEV <chr>,
#   AESER <chr>, AEACN <chr>, AEREL <chr>, AEOUT <chr>, AESCAN <chr>,
#   AESCONG <chr>, AESDISAB <chr>, AESDTH <chr>, AESHOSP <chr>, AESLIFE <chr>,
#   AESOD <chr>, AEDTC <chr>, AESTDTC <chr>, AEENDTC <chr>, AESTDY <dbl>,
#   AEENDY <dbl>, TRTSDT <date>, TRTEDT <date>, DTHDT <date>, EOSDT <date>, …
# ℹ Use `print(n = ...)` to see more rows
   [1] "Y" "Y" "Y" "Y" "Y" "Y" "Y" "Y" "Y" "Y" "Y" "Y" "Y" "Y" "Y" "Y" "Y" "Y" "Y"
  [20] "Y" "Y" "Y" "Y" "Y" "Y" "Y" "Y" "Y" "Y" "Y" "Y" "Y" "Y" "Y" "Y" "Y" "Y" "Y"
  [39] "Y" "Y" "Y" "Y" "Y" "Y" "Y" "Y" "Y" "Y" "Y" "Y" "Y" "Y" "Y" "Y" "Y" "Y" "Y"
  [58] "Y" "Y" "Y" "Y" "Y" "Y" "Y" "Y" "Y" "Y" "Y" "Y" "Y" "Y" "Y" "Y" "Y" "Y" "Y"
  [77] "Y" "Y" "Y" "Y" "Y" "Y" "Y" "Y" "Y" "Y" "Y" "Y" "Y" "Y" "Y" "Y" "Y" "Y" "Y"
  [96] "Y" "Y" "Y" "Y" "Y" "Y" "Y" "Y" "Y" "Y" "Y" "Y" "Y" "Y" "Y" "Y" "Y" "Y" "Y"
 [115] "Y" "Y" "Y" "Y" "Y" "Y" "Y" "Y" "Y" "Y" "Y" "Y" "Y" "Y" "Y" "Y" "Y" "Y" "Y"
 [134] "Y" "Y" "Y" "Y" "Y" "Y" "Y" "Y" "Y" "Y" "Y" "Y" "Y" "Y" "Y" "Y" "Y" "Y" "Y"
 [153] "Y" "Y" "Y" "Y" "Y" "Y" "Y" "Y" "Y" "Y" "Y" "Y" "Y" "Y" "Y" "Y" "Y" "Y" "Y"
 [172] "Y" "Y" "Y" "Y" "Y" "Y" "Y" "Y" "Y" "Y" "Y" "Y" "Y" "Y" "Y" "Y" "Y" "Y" "Y"
 [191] "Y" "Y" "Y" "Y" "Y" "Y" "Y" "Y" "Y" "Y" "Y" "Y" "Y" "Y" "Y" "Y" "Y" "Y" "Y"
 [210] "Y" "Y" "Y" "Y" "Y" "Y" "Y" "Y" "Y" "Y" "Y" "Y" "Y" "Y" "Y" "Y" "Y" "Y" "Y"
 [229] "Y" "Y" "Y" "Y" "Y" "Y" "Y" "Y" "Y" "Y" "Y" "Y" "Y" "Y" "Y" "Y" "Y" "Y" "Y"
 [248] "Y" "Y" "Y" "Y" "Y" "Y" "Y" "Y" "Y" "Y" "Y" "Y" "Y" "Y" "Y" "Y" "Y" "Y" "Y"
 [267] "Y" "Y" "Y" "Y" "Y" "Y" "Y" "Y" "Y" "Y" "Y" "Y" "Y" "Y" "Y" "Y" "Y" "Y" "Y"
 [286] "Y" "Y" "Y" "Y" "Y" "Y" "Y" "Y" "Y" "Y" "Y" "Y" "Y" "Y" "Y" "Y" "Y" "Y" "Y"
 [305] "Y" "Y" "Y" "Y" "Y" "Y" "Y" "Y" "Y" "Y" "Y" "Y" "Y" "Y" "Y" "Y" "Y" "Y" "Y"
 [324] "Y" "Y" "Y" "Y" "Y" "Y" "Y" "Y" "Y" "Y" "Y" "Y" "Y" "Y" "Y" "Y" "Y" "Y" "Y"
 [343] "Y" "Y" "Y" "Y" "Y" "Y" "Y" "Y" "Y" "Y" "Y" "Y" "Y" "Y" "Y" "Y" "Y" "Y" "Y"
 [362] "Y" "Y" "Y" "Y" "Y" "Y" "Y" "Y" "Y" "Y" "Y" "Y" "Y" "Y" "Y" "Y" "Y" "Y" "Y"
 [381] "Y" "Y" "Y" "Y" "Y" "Y" "Y" "Y" "Y" "Y" "Y" "Y" "Y" "Y" "Y" "Y" "Y" "Y" "Y"
 [400] "Y" "Y" "Y" "Y" "Y" "Y" "Y" "Y" "Y" "Y" "Y" "Y" "Y" "Y" "Y" "Y" "Y" "Y" "Y"
 [419] "Y" "Y" "Y" "Y" "Y" "Y" "Y" "Y" "Y" "Y" "Y" "Y" "Y" "Y" "Y" "Y" "Y" "Y" "Y"
 [438] "Y" "Y" "Y" "Y" "Y" "Y" "Y" "Y" "Y" "Y" "Y" "Y" "Y" "Y" "Y" "Y" "Y" "Y" "Y"
 [457] "Y" "Y" "Y" "Y" "Y" "Y" "Y" "Y" "Y" "Y" "Y" "Y" "Y" "Y" "Y" "Y" "Y" "Y" "Y"
 [476] "Y" "Y" "Y" "Y" "Y" "Y" "Y" "Y" "Y" "Y" "Y" "Y" "Y" "Y" "Y" "Y" "Y" "Y" "Y"
 [495] "Y" "Y" "Y" "Y" "Y" "Y" "Y" "Y" "Y" "Y" "Y" "Y" "Y" "Y" "Y" "Y" "Y" "Y" "Y"
 [514] "Y" "Y" "Y" "Y" "Y" "Y" "Y" "Y" "Y" "Y" "Y" "Y" "Y" "Y" "Y" "Y" "Y" "Y" "Y"
 [533] "Y" "Y" "Y" "Y" "Y" "Y" "Y" "Y" "Y" "Y" "Y" "Y" "Y" "Y" "Y" "Y" "Y" "Y" "Y"
 [552] "Y" "Y" "Y" "Y" "Y" "Y" "Y" "Y" "Y" "Y" "Y" "Y" "Y" "Y" "Y" "Y" "Y" "Y" "Y"
 [571] "Y" "Y" "Y" "Y" "Y" "Y" "Y" "Y" "Y" "Y" "Y" "Y" "Y" "Y" "Y" "Y" "Y" "Y" "Y"
 [590] "Y" "Y" "Y" "Y" "Y" "Y" "Y" "Y" "Y" "Y" "Y" "Y" "Y" "Y" "Y" "Y" "Y" "Y" "Y"
 [609] "Y" "Y" "Y" "Y" "Y" "Y" "Y" "Y" "Y" "Y" "Y" "Y" "Y" "Y" "Y" "Y" "Y" "Y" "Y"
 [628] "Y" "Y" "Y" "Y" "Y" "Y" "Y" "Y" "Y" "Y" "Y" "Y" "Y" "Y" "Y" "Y" "Y" "Y" "Y"
 [647] "Y" "Y" "Y" "Y" "Y" "Y" "Y" "Y" "Y" "Y" "Y" "Y" "Y" "Y" "Y" "Y" "Y" "Y" "Y"
 [666] "Y" "Y" "Y" "Y" "Y" "Y" "Y" "Y" "Y" "Y" "Y" "Y" "Y" "Y" "Y" "Y" "Y" "Y" "Y"
 [685] "Y" "Y" "Y" "Y" "Y" "Y" "Y" "Y" "Y" "Y" "Y" "Y" "Y" "Y" "Y" "Y" "Y" "Y" "Y"
 [704] "Y" "Y" "Y" "Y" "Y" "Y" "Y" "Y" "Y" "Y" "Y" "Y" "Y" "Y" "Y" "Y" "Y" "Y" "Y"
 [723] "Y" "Y" "Y" "Y" "Y" "Y" "Y" "Y" "Y" "Y" "Y" "Y" "Y" "Y" "Y" "Y" "Y" "Y" "Y"
 [742] "Y" "Y" "Y" "Y" "Y" "Y" "Y" "Y" "Y" "Y" "Y" "Y" "Y" "Y" "Y" "Y" "Y" "Y" "Y"
 [761] "Y" "Y" "Y" "Y" "Y" "Y" "Y" "Y" "Y" "Y" "Y" "Y" "Y" "Y" "Y" "Y" "Y" "Y" "Y"
 [780] "Y" "Y" "Y" "Y" "Y" "Y" "Y" "Y" "Y" "Y" "Y" "Y" "Y" "Y" "Y" "Y" "Y" "Y" "Y"
 [799] "Y" "Y" "Y" "Y" "Y" "Y" "Y" "Y" "Y" "Y" "Y" "Y" "Y" "Y" "Y" "Y" "Y" "Y" "Y"
 [818] "Y" "Y" "Y" "Y" "Y" "Y" "Y" "Y" "Y" "Y" "Y" "Y" "Y" "Y" "Y" "Y" "Y" "Y" "Y"
 [837] "Y" "Y" "Y" "Y" "Y" "Y" "Y" "Y" "Y" "Y" "Y" "Y" "Y" "Y" "Y" "Y" "Y" "Y" "Y"
 [856] "Y" "Y" "Y" "Y" "Y" "Y" "Y" "Y" "Y" "Y" "Y" "Y" "Y" "Y" "Y" "Y" "Y" "Y" "Y"
 [875] "Y" "Y" "Y" "Y" "Y" "Y" "Y" "Y" "Y" "Y" "Y" "Y" "Y" "Y" "Y" "Y" "Y" "Y" "Y"
 [894] "Y" "Y" "Y" "Y" "Y" "Y" "Y" "Y" "Y" "Y" "Y" "Y" "Y" "Y" "Y" "Y" "Y" "Y" "Y"
 [913] "Y" "Y" "Y" "Y" "Y" "Y" "Y" "Y" "Y" "Y" "Y" "Y" "Y" "Y" "Y" "Y" "Y" "Y" "Y"
 [932] "Y" "Y" "Y" "Y" "Y" "Y" "Y" "Y" "Y" "Y" "Y" "Y" "Y" "Y" "Y" "Y" "Y" "Y" "Y"
 [951] "Y" "Y" "Y" "Y" "Y" "Y" "Y" "Y" "Y" "Y" "Y" "Y" "Y" "Y" "Y" "Y" "Y" "Y" "Y"
 [970] "Y" "Y" "Y" "Y" "Y" "Y" "Y" "Y" "Y" "Y" "Y" "Y" "Y" "Y" "Y" "Y" "Y" "Y" "Y"
 [989] "Y" "Y" "Y" "Y" "Y" "Y" "Y" "Y" "Y" "Y" "Y" "Y"
 [ reached getOption("max.print") -- omitted 191 entries ]
attr(,"label")
[1] "Safety Population Flag"
   [1] "N" "N" "N" "N" "N" "N" "N" "N" "N" "N" "N" "N" "N" "N" "N" "N" "N" "N" "N"
  [20] "N" "N" "N" "N" "N" "N" "N" "N" "N" "N" "N" "N" "N" "N" "N" "N" "N" "N" "N"
  [39] "N" "N" "N" "N" "N" "N" "N" "N" "N" "N" "N" "N" "N" "N" "N" "N" "N" "N" "N"
  [58] "N" "N" "N" "N" "N" "N" "N" "N" "N" "N" "N" "N" "N" "N" "N" "N" "N" "N" "N"
  [77] "N" "N" "N" "N" "N" "N" "N" "N" "N" "N" "N" "N" "N" "N" "N" "N" "N" "N" "N"
  [96] "N" "N" "N" "N" "N" "N" "N" "N" "N" "N" "N" "N" "N" "N" "N" "N" "N" "N" "N"
 [115] "N" "N" "N" "N" "N" "N" "N" "N" "N" "N" "N" "N" "N" "N" "N" "N" "N" "N" "N"
 [134] "N" "N" "N" "N" "N" "N" "N" "N" "N" "N" "N" "N" "N" "N" "N" "N" "N" "N" "N"
 [153] "N" "N" "N" "N" "N" "N" "N" "N" "N" "N" "N" "N" "N" "N" "N" "N" "N" "N" "N"
 [172] "N" "N" "N" "N" "N" "N" "N" "N" "N" "N" "N" "N" "N" "N" "N" "N" "N" "N" "N"
 [191] "N" "N" "N" "N" "N" "N" "N" "N" "N" "N" "N" "N" "N" "N" "N" "N" "N" "N" "N"
 [210] "N" "N" "N" "N" "N" "N" "N" "N" "N" "N" "N" "N" "N" "N" "N" "N" "N" "N" "N"
 [229] "N" "N" "N" "N" "N" "N" "N" "N" "N" "N" "N" "N" "N" "N" "N" "N" "N" "N" "N"
 [248] "N" "N" "N" "N" "N" "N" "N" "N" "N" "N" "N" "N" "N" "N" "N" "N" "N" "N" "N"
 [267] "N" "N" "N" "N" "N" "N" "N" "N" "N" "N" "N" "N" "N" "N" "N" "N" "N" "N" "N"
 [286] "N" "N" "N" "N" "N" "N" "N" "N" "N" "N" "N" "N" "N" "N" "N" "N" "N" "N" "N"
 [305] "N" "N" "N" "N" "N" "N" "N" "N" "N" "N" "N" "N" "N" "N" "N" "N" "N" "N" "N"
 [324] "N" "N" "N" "N" "N" "N" "N" "N" "N" "N" "N" "N" "N" "N" "N" "N" "N" "N" "N"
 [343] "N" "N" "N" "N" "N" "N" "N" "N" "N" "N" "N" "N" "N" "N" "N" "N" "N" "N" "N"
 [362] "N" "N" "N" "N" "N" "N" "N" "N" "N" "N" "N" "N" "N" "N" "N" "N" "N" "N" "N"
 [381] "N" "N" "N" "N" "N" "N" "N" "N" "N" "N" "N" "N" "N" "N" "N" "N" "N" "N" "N"
 [400] "N" "N" "N" "N" "N" "N" "N" "N" "N" "N" "N" "N" "N" "N" "N" "N" "N" "N" "N"
 [419] "N" "N" "N" "N" "N" "N" "N" "N" "N" "N" "N" "N" "N" "N" "N" "N" "N" "N" "N"
 [438] "N" "N" "N" "N" "N" "N" "N" "N" "N" "N" "N" "N" "N" "N" "N" "N" "N" "N" "N"
 [457] "N" "N" "N" "N" "N" "N" "N" "N" "N" "N" "N" "N" "N" "N" "N" "N" "N" "N" "N"
 [476] "N" "N" "N" "N" "N" "N" "N" "N" "N" "N" "N" "N" "N" "N" "N" "N" "N" "N" "N"
 [495] "N" "N" "N" "N" "N" "N" "N" "N" "N" "N" "N" "N" "N" "N" "N" "N" "N" "N" "N"
 [514] "N" "N" "N" "N" "N" "N" "N" "N" "N" "N" "N" "N" "N" "N" "N" "N" "N" "N" "N"
 [533] "N" "N" "N" "N" "N" "N" "N" "N" "N" "N" "N" "N" "N" "N" "N" "N" "N" "N" "N"
 [552] "N" "N" "N" "N" "N" "N" "N" "N" "N" "N" "N" "N" "N" "N" "N" "N" "N" "N" "N"
 [571] "N" "N" "N" "N" "N" "N" "N" "N" "N" "N" "N" "N" "N" "N" "N" "N" "N" "N" "N"
 [590] "N" "N" "N" "N" "N" "N" "N" "N" "N" "N" "N" "N" "N" "N" "N" "N" "N" "N" "N"
 [609] "N" "N" "N" "N" "N" "N" "N" "N" "N" "N" "N" "N" "N" "N" "N" "N" "N" "N" "N"
 [628] "N" "N" "N" "N" "N" "Y" "N" "N" "N" "N" "N" "N" "N" "N" "N" "N" "N" "N" "N"
 [647] "N" "N" "N" "N" "N" "N" "N" "N" "N" "N" "N" "N" "N" "N" "N" "N" "N" "N" "N"
 [666] "N" "N" "N" "N" "N" "N" "N" "N" "N" "N" "N" "N" "N" "N" "N" "N" "N" "N" "N"
 [685] "N" "N" "N" "N" "N" "N" "N" "N" "N" "N" "N" "N" "N" "N" "N" "N" "N" "N" "N"
 [704] "N" "N" "N" "N" "N" "N" "N" "N" "N" "N" "N" "N" "N" "N" "N" "N" "N" "N" "N"
 [723] "N" "N" "N" "N" "N" "N" "N" "N" "N" "N" "N" "N" "N" "N" "N" "N" "N" "N" "N"
 [742] "N" "N" "N" "N" "N" "N" "N" "N" "N" "N" "N" "N" "N" "N" "N" "N" "N" "N" "N"
 [761] "N" "N" "N" "N" "N" "N" "N" "N" "N" "N" "N" "N" "N" "N" "N" "N" "N" "N" "N"
 [780] "N" "N" "N" "N" "N" "N" "N" "N" "N" "N" "N" "N" "N" "N" "N" "N" "N" "N" "N"
 [799] "N" "N" "N" "N" "N" "N" "N" "N" "N" "N" "N" "N" "N" "N" "N" "N" "N" "N" "N"
 [818] "N" "N" "N" "N" "N" "N" "N" "N" "N" "N" "N" "N" "N" "N" "N" "N" "N" "N" "N"
 [837] "N" "N" "N" "N" "N" "N" "N" "N" "N" "N" "N" "N" "N" "N" "N" "N" "N" "N" "N"
 [856] "N" "N" "N" "N" "N" "N" "N" "N" "N" "N" "N" "N" "N" "N" "N" "N" "N" "N" "N"
 [875] "N" "N" "N" "N" "N" "N" "N" "N" "N" "N" "N" "N" "N" "N" "N" "N" "N" "N" "N"
 [894] "N" "N" "N" "N" "N" "N" "N" "N" "N" "N" "N" "N" "N" "N" "N" "N" "N" "N" "N"
 [913] "N" "N" "N" "N" "N" "N" "N" "N" "N" "N" "N" "N" "N" "N" "N" "N" "N" "N" "N"
 [932] "N" "N" "N" "N" "N" "N" "N" "N" "N" "N" "N" "N" "N" "N" "N" "N" "N" "N" "N"
 [951] "N" "N" "N" "N" "N" "N" "N" "N" "N" "N" "N" "N" "N" "N" "N" "N" "N" "N" "N"
 [970] "N" "N" "N" "N" "N" "N" "N" "N" "N" "N" "N" "N" "N" "N" "N" "N" "N" "N" "N"
 [989] "N" "N" "N" "N" "N" "N" "N" "N" "N" "N" "N" "N"
 [ reached getOption("max.print") -- omitted 191 entries ]
attr(,"label")
[1] "Serious Event"
   [1] "Y" "Y" "Y" "Y" "Y" "Y" "Y" "Y" "Y" "Y" "Y" "Y" "Y" "Y" "Y" "Y" "Y" "Y" "Y"
  [20] "Y" "Y" "Y" "Y" "Y" "Y" "Y" "Y" "Y" "Y" "Y" "Y" "Y" "Y" "Y" "Y" "Y" "Y" "Y"
  [39] "Y" "Y" "Y" "Y" "Y" "Y" "Y" "Y" "Y" "Y" "Y" "Y" "Y" "Y" "Y" "Y" "Y" "Y" "Y"
  [58] "Y" "Y" "Y" "Y" "Y" "Y" "Y" "Y" "Y" "Y" "Y" "Y" "Y" "Y" "Y" "Y" "Y" "Y" "Y"
  [77] "Y" "Y" "Y" "Y" "Y" "Y" "Y" "Y" "Y" "Y" "Y" "Y" "Y" "Y" "Y" "Y" "Y" "Y" "Y"
  [96] "Y" "Y" "Y" "Y" "Y" "Y" "Y" "Y" "Y" "Y" "Y" "Y" "Y" "Y" "Y" "Y" "Y" "Y" "Y"
 [115] "Y" "Y" "Y" "Y" "Y" "Y" "Y" "Y" "Y" "Y" "Y" "Y" "Y" "Y" "Y" "Y" "Y" "Y" "Y"
 [134] "Y" "Y" "Y" "Y" "Y" "Y" "Y" "Y" "Y" "Y" "Y" "Y" "Y" "Y" "Y" "Y" "Y" "Y" "Y"
 [153] "Y" "Y" "Y" "Y" "Y" "Y" "Y" "Y" "Y" "Y" "Y" "Y" "Y" "Y" "Y" "Y" "Y" "Y" "Y"
 [172] "Y" "Y" "Y" "Y" "Y" "Y" "Y" "Y" "Y" "Y" "Y" "Y" "Y" "Y" "Y" "Y" "Y" "Y" "Y"
 [191] "Y" "Y" "Y" "Y" "Y" "Y" "Y" "Y" "Y" "Y" "Y" "Y" "Y" "Y" "Y" "Y" "Y" "Y" "Y"
 [210] "Y" "Y" "Y" "Y" "Y" "Y" "Y" "Y" "Y" "Y" "Y" "Y" "Y" "Y" "Y" "Y" "Y" "Y" "Y"
 [229] "Y" "Y" "Y" "Y" "Y" "Y" "Y" "Y" "Y" "Y" "Y" "Y" "Y" "Y" "Y" "Y" "Y" "Y" "Y"
 [248] "Y" "Y" "Y" "Y" "Y" "Y" "Y" "Y" "Y" "Y" "Y" "Y" "Y" "Y" "Y" "Y" "Y" "Y" "Y"
 [267] "Y" "Y" "Y" "Y" "Y" "Y" "Y" "Y" "Y" "Y" "Y" "Y" "Y" "Y" "Y" "Y" "Y" "Y" "Y"
 [286] "Y" "Y" "Y" "Y" "Y" "Y" "Y" "Y" "Y" "Y" "Y" "Y" "Y" "Y" "Y" "Y" "Y" "Y" "Y"
 [305] "Y" "Y" "Y" "Y" "Y" "Y" "Y" "Y" "Y" "Y" "Y" "Y" "Y" "Y" "Y" "Y" "Y" "Y" "Y"
 [324] "Y" "Y" "Y" "Y" "Y" "Y" "Y" "Y" "Y" "Y" "Y" "Y" "Y" "Y" "Y" "Y" "Y" "Y" "Y"
 [343] "Y" "Y" "Y" "Y" "Y" "Y" "Y" "Y" "Y" "Y" "Y" "Y" "Y" "Y" "Y" "Y" "Y" "Y" "Y"
 [362] "Y" "Y" "Y" "Y" "Y" "Y" "Y" "Y" "Y" "Y" "Y" "Y" "Y" "Y" "Y" "Y" "Y" "Y" "Y"
 [381] "Y" "Y" "Y" "Y" "Y" "Y" "Y" "Y" "Y" "Y" "Y" "Y" "Y" "Y" "Y" "Y" "Y" "Y" "Y"
 [400] "Y" "Y" "Y" "Y" "Y" "Y" "Y" "Y" "Y" "Y" "Y" "Y" "Y" "Y" "Y" "Y" "Y" "Y" "Y"
 [419] "Y" "Y" "Y" "Y" "Y" "Y" "Y" "Y" "Y" "Y" "Y" "Y" "Y" "Y" "Y" "Y" "Y" "Y" "Y"
 [438] "Y" "Y" "Y" "Y" "Y" "Y" "Y" "Y" "Y" "Y" "Y" "Y" "Y" "Y" "Y" "Y" "Y" "Y" "Y"
 [457] "Y" "Y" "Y" "Y" "Y" "Y" "Y" "Y" "Y" "Y" "Y" "Y" "Y" "Y" "Y" "Y" "Y" "Y" "Y"
 [476] "Y" "Y" "Y" "Y" "Y" "Y" "Y" "Y" "Y" "Y" "Y" "Y" "Y" "Y" "Y" "Y" "Y" "Y" "Y"
 [495] "Y" "Y" "Y" "Y" "Y" "Y" "Y" "Y" "Y" "Y" "Y" "Y" "Y" "Y" "Y" "Y" "Y" "Y" "Y"
 [514] "Y" "Y" "Y" "Y" "Y" "Y" "Y" "Y" "Y" "Y" "Y" "Y" "Y" "Y" "Y" "Y" "Y" "Y" "Y"
 [533] "Y" "Y" "Y" "Y" "Y" "Y" "Y" "Y" "Y" "Y" "Y" "Y" "Y" "Y" "Y" "Y" "Y" "Y" "Y"
 [552] "Y" "Y" "Y" "Y" "Y" "Y" "Y" "Y" "Y" "Y" "Y" "Y" "Y" "Y" "Y" "Y" "Y" "Y" "Y"
 [571] "Y" "Y" "Y" "Y" "Y" "Y" "Y" "Y" "Y" "Y" "Y" "Y" "Y" "Y" "Y" "Y" "Y" "Y" "Y"
 [590] "Y" "Y" "Y" "Y" "Y" "Y" "Y" "Y" "Y" "Y" "Y" "Y" "Y" "Y" "Y" "Y" "Y" "Y" "Y"
 [609] "Y" "Y" "Y" "Y" "Y" "Y" "Y" "Y" "Y" "Y" "Y" "Y" "Y" "Y" "Y" "Y" "Y" "Y" "Y"
 [628] "Y" "Y" "Y" "Y" "Y" "Y" "Y" "Y" "Y" "Y" "Y" "Y" "Y" "Y" "Y" "Y" "Y" "Y" "Y"
 [647] "Y" "Y" "Y" "Y" "Y" "Y" "Y" "Y" "Y" "Y" "Y" "Y" "Y" "Y" "Y" "Y" "Y" "Y" "Y"
 [666] "Y" "Y" "Y" "Y" "Y" "Y" "Y" "Y" "Y" "Y" "Y" "Y" "Y" "Y" "Y" "Y" "Y" "Y" "Y"
 [685] "Y" "Y" "Y" "Y" "Y" "Y" "Y" "Y" "Y" "Y" "Y" "Y" "Y" "Y" "Y" "Y" "Y" "Y" "Y"
 [704] "Y" "Y" "Y" "Y" "Y" "Y" "Y" "Y" "Y" "Y" "Y" "Y" "Y" "Y" "Y" "Y" "Y" "Y" "Y"
 [723] "Y" "Y" "Y" "Y" "Y" "Y" "Y" "Y" "Y" "Y" "Y" "Y" "Y" "Y" "Y" "Y" "Y" "Y" "Y"
 [742] "Y" "Y" "Y" "Y" "Y" "Y" "Y" "Y" "Y" "Y" "Y" "Y" "Y" "Y" "Y" "Y" "Y" "Y" "Y"
 [761] "Y" "Y" "Y" "Y" "Y" "Y" "Y" "Y" "Y" "Y" "Y" "Y" "Y" "Y" "Y" "Y" "Y" "Y" "Y"
 [780] "Y" "Y" "Y" "Y" "Y" "Y" "Y" "Y" "Y" "Y" "Y" "Y" "Y" "Y" "Y" "Y" "Y" "Y" "Y"
 [799] "Y" "Y" "Y" "Y" "Y" "Y" "Y" "Y" "Y" "Y" "Y" "Y" "Y" "Y" "Y" "Y" "Y" "Y" "Y"
 [818] "Y" "Y" "Y" "Y" "Y" "Y" "Y" "Y" "Y" "Y" "Y" "Y" "Y" "Y" "Y" "Y" "Y" "Y" "Y"
 [837] "Y" "Y" "Y" "Y" "Y" "Y" "Y" "Y" "Y" "Y" "Y" "Y" "Y" "Y" "Y" "Y" "Y" "Y" "Y"
 [856] "Y" "Y" "Y" "Y" "Y" "Y" "Y" "Y" "Y" "Y" "Y" "Y" "Y" "Y" "Y" "Y" "Y" "Y" "Y"
 [875] "Y" "Y" "Y" "Y" "Y" "Y" "Y" "Y" "Y" "Y" "Y" "Y" "Y" "Y" "Y" "Y" "Y" "Y" "Y"
 [894] "Y" "Y" "Y" "Y" "Y" "Y" "Y" "Y" "Y" "Y" "Y" "Y" "Y" "Y" "Y" "Y" "Y" "Y" "Y"
 [913] "Y" "Y" "Y" "Y" "Y" "Y" "Y" "Y" "Y" "Y" "Y" "Y" "Y" "Y" "Y" "Y" "Y" "Y" "Y"
 [932] "Y" "Y" "Y" "Y" "Y" "Y" "Y" "Y" "Y" "Y" "Y" "Y" "Y" "Y" "Y" "Y" "Y" "Y" "Y"
 [951] "Y" "Y" "Y" "Y" "Y" "Y" "Y" "Y" "Y" "Y" "Y" "Y" "Y" "Y" "Y" "Y" "Y" "Y" "Y"
 [970] "Y" "Y" "Y" "Y" "Y" "Y" "Y" "Y" "Y" "Y" "Y" "Y" "Y" "Y" "Y" "Y" "Y" "Y" "Y"
 [989] "Y" "Y" "Y" "Y" "Y" "Y" "Y" "Y" "Y" "Y" "Y" "Y"
 [ reached getOption("max.print") -- omitted 191 entries ]
attr(,"label")
[1] "Treatment Emergent Analysis Flag"

   Y 
1122 

   Y 
1122 
[1] 306
   [1] "APPLICATION SITE ERYTHEMA"                   
   [2] "APPLICATION SITE PRURITUS"                   
   [3] "DIARRHOEA"                                   
   [4] "ERYTHEMA"                                    
   [5] "ERYTHEMA"                                    
   [6] "ERYTHEMA"                                    
   [7] "ATRIOVENTRICULAR BLOCK SECOND DEGREE"        
   [8] "APPLICATION SITE ERYTHEMA"                   
   [9] "APPLICATION SITE PRURITUS"                   
  [10] "APPLICATION SITE PRURITUS"                   
  [11] "FATIGUE"                                     
  [12] "HIATUS HERNIA"                               
  [13] "HIATUS HERNIA"                               
  [14] "UPPER RESPIRATORY TRACT INFECTION"           
  [15] "BUNDLE BRANCH BLOCK LEFT"                    
  [16] "PRURITUS GENERALISED"                        
  [17] "APPLICATION SITE PRURITUS"                   
  [18] "PRURITUS GENERALISED"                        
  [19] "PRURITUS GENERALISED"                        
  [20] "PRURITUS GENERALISED"                        
  [21] "ERYTHEMA"                                    
  [22] "APPLICATION SITE VESICLES"                   
  [23] "APPLICATION SITE PRURITUS"                   
  [24] "PHARYNGOLARYNGEAL PAIN"                      
  [25] "NASAL CONGESTION"                            
  [26] "ARTHRALGIA"                                  
  [27] "CELLULITIS"                                  
  [28] "MICTURITION URGENCY"                         
  [29] "APPLICATION SITE ERYTHEMA"                   
  [30] "APPLICATION SITE PRURITUS"                   
  [31] "FATIGUE"                                     
  [32] "APPLICATION SITE IRRITATION"                 
  [33] "APPLICATION SITE DERMATITIS"                 
  [34] "APPLICATION SITE ERYTHEMA"                   
  [35] "APPLICATION SITE PRURITUS"                   
  [36] "APPLICATION SITE IRRITATION"                 
  [37] "APPLICATION SITE IRRITATION"                 
  [38] "URINARY TRACT INFECTION"                     
  [39] "PYREXIA"                                     
  [40] "URINARY TRACT INFECTION"                     
  [41] "EYE SWELLING"                                
  [42] "EYE ALLERGY"                                 
  [43] "EYE PRURITUS"                                
  [44] "PRURITUS"                                    
  [45] "NASAL CONGESTION"                            
  [46] "APPLICATION SITE ERYTHEMA"                   
  [47] "APPLICATION SITE PRURITUS"                   
  [48] "APPLICATION SITE ERYTHEMA"                   
  [49] "APPLICATION SITE PRURITUS"                   
  [50] "APPLICATION SITE ERYTHEMA"                   
  [51] "APPLICATION SITE PRURITUS"                   
  [52] "APPLICATION SITE PAIN"                       
  [53] "APPLICATION SITE VESICLES"                   
  [54] "APPLICATION SITE IRRITATION"                 
  [55] "APPLICATION SITE IRRITATION"                 
  [56] "FATIGUE"                                     
  [57] "APPLICATION SITE ERYTHEMA"                   
  [58] "APPLICATION SITE PRURITUS"                   
  [59] "LOWER RESPIRATORY TRACT INFECTION"           
  [60] "LOWER RESPIRATORY TRACT INFECTION"           
  [61] "FLANK PAIN"                                  
  [62] "CALCULUS URETHRAL"                           
  [63] "APPLICATION SITE ERYTHEMA"                   
  [64] "APPLICATION SITE PRURITUS"                   
  [65] "EPISTAXIS"                                   
  [66] "ACTINIC KERATOSIS"                           
  [67] "INCREASED APPETITE"                          
  [68] "INCREASED APPETITE"                          
  [69] "APPLICATION SITE VESICLES"                   
  [70] "APPLICATION SITE PRURITUS"                   
  [71] "APPLICATION SITE ERYTHEMA"                   
  [72] "VOMITING"                                    
  [73] "VOMITING"                                    
  [74] "MICTURITION URGENCY"                         
  [75] "MICTURITION URGENCY"                         
  [76] "NASOPHARYNGITIS"                             
  [77] "AGITATION"                                   
  [78] "ERYTHEMA"                                    
  [79] "PRURITUS"                                    
  [80] "URTICARIA"                                   
  [81] "ERYTHEMA"                                    
  [82] "PRURITUS"                                    
  [83] "URTICARIA"                                   
  [84] "APPLICATION SITE URTICARIA"                  
  [85] "URTICARIA"                                   
  [86] "PNEUMONIA"                                   
  [87] "MUSCULAR WEAKNESS"                           
  [88] "PNEUMONIA"                                   
  [89] "MUSCULAR WEAKNESS"                           
  [90] "NASAL MUCOSA BIOPSY"                         
  [91] "SECRETION DISCHARGE"                         
  [92] "ERYTHEMA"                                    
  [93] "SECRETION DISCHARGE"                         
  [94] "ERYTHEMA"                                    
  [95] "APPLICATION SITE IRRITATION"                 
  [96] "APPLICATION SITE ERYTHEMA"                   
  [97] "APPLICATION SITE PRURITUS"                   
  [98] "APPLICATION SITE IRRITATION"                 
  [99] "EYE LASER SURGERY"                           
 [100] "SUDDEN DEATH"                                
 [101] "JOINT DISLOCATION"                           
 [102] "CONFUSIONAL STATE"                           
 [103] "DYSPNOEA"                                    
 [104] "APPLICATION SITE PRURITUS"                   
 [105] "SHOULDER PAIN"                               
 [106] "INCONTINENCE"                                
 [107] "APPLICATION SITE ERYTHEMA"                   
 [108] "SKIN LACERATION"                             
 [109] "ERYTHEMA"                                    
 [110] "ERYTHEMA"                                    
 [111] "SKIN ODOUR ABNORMAL"                         
 [112] "PRURITUS"                                    
 [113] "APPLICATION SITE IRRITATION"                 
 [114] "APPLICATION SITE IRRITATION"                 
 [115] "UPPER RESPIRATORY TRACT INFECTION"           
 [116] "UPPER RESPIRATORY TRACT INFECTION"           
 [117] "FATIGUE"                                     
 [118] "HORDEOLUM"                                   
 [119] "NAUSEA"                                      
 [120] "NAUSEA"                                      
 [121] "VOMITING"                                    
 [122] "ERYTHEMA"                                    
 [123] "SALIVARY HYPERSECRETION"                     
 [124] "PAROSMIA"                                    
 [125] "PRURITUS"                                    
 [126] "ERYTHEMA"                                    
 [127] "SALIVARY HYPERSECRETION"                     
 [128] "PAROSMIA"                                    
 [129] "PRURITUS"                                    
 [130] "COUGH"                                       
 [131] "NASAL CONGESTION"                            
 [132] "COUGH"                                       
 [133] "NASAL CONGESTION"                            
 [134] "SALIVARY HYPERSECRETION"                     
 [135] "APPLICATION SITE PRURITUS"                   
 [136] "APPLICATION SITE ERYTHEMA"                   
 [137] "RHINORRHOEA"                                 
 [138] "RHINORRHOEA"                                 
 [139] "APPLICATION SITE PRURITUS"                   
 [140] "APPLICATION SITE ERYTHEMA"                   
 [141] "RASH ERYTHEMATOUS"                           
 [142] "APPLICATION SITE PRURITUS"                   
 [143] "APPLICATION SITE ERYTHEMA"                   
 [144] "DIZZINESS"                                   
 [145] "MALAISE"                                     
 [146] "APPLICATION SITE PERSPIRATION"               
 [147] "HYPERHIDROSIS"                               
 [148] "STOMACH DISCOMFORT"                          
 [149] "PAIN"                                        
 [150] "NASAL CONGESTION"                            
 [151] "PHARYNGOLARYNGEAL PAIN"                      
 [152] "PRODUCTIVE COUGH"                            
 [153] "MALAISE"                                     
 [154] "MYALGIA"                                     
 [155] "DIZZINESS"                                   
 [156] "CONTUSION"                                   
 [157] "CONTUSION"                                   
 [158] "HEADACHE"                                    
 [159] "EPISTAXIS"                                   
 [160] "APPLICATION SITE ERYTHEMA"                   
 [161] "APPLICATION SITE PRURITUS"                   
 [162] "RESPIRATORY TRACT CONGESTION"                
 [163] "RHINITIS"                                    
 [164] "FEELING ABNORMAL"                            
 [165] "LISTLESS"                                    
 [166] "LIBIDO DECREASED"                            
 [167] "DEPRESSED MOOD"                              
 [168] "APPLICATION SITE ERYTHEMA"                   
 [169] "APPLICATION SITE PRURITUS"                   
 [170] "APPLICATION SITE URTICARIA"                  
 [171] "DEPRESSED MOOD"                              
 [172] "FATIGUE"                                     
 [173] "DYSPHONIA"                                   
 [174] "APPLICATION SITE ERYTHEMA"                   
 [175] "APPLICATION SITE PRURITUS"                   
 [176] "APPLICATION SITE VESICLES"                   
 [177] "APPLICATION SITE VESICLES"                   
 [178] "APPLICATION SITE PRURITUS"                   
 [179] "APPLICATION SITE ERYTHEMA"                   
 [180] "APPLICATION SITE PRURITUS"                   
 [181] "APPLICATION SITE ERYTHEMA"                   
 [182] "APPLICATION SITE IRRITATION"                 
 [183] "APPLICATION SITE ERYTHEMA"                   
 [184] "APPLICATION SITE PRURITUS"                   
 [185] "APPLICATION SITE VESICLES"                   
 [186] "NAUSEA"                                      
 [187] "APPLICATION SITE PRURITUS"                   
 [188] "BACK PAIN"                                   
 [189] "BACK PAIN"                                   
 [190] "APPLICATION SITE PRURITUS"                   
 [191] "APPLICATION SITE IRRITATION"                 
 [192] "COUGH"                                       
 [193] "APPLICATION SITE PRURITUS"                   
 [194] "APPLICATION SITE PAIN"                       
 [195] "APPLICATION SITE ERYTHEMA"                   
 [196] "APPLICATION SITE PRURITUS"                   
 [197] "APPLICATION SITE ERYTHEMA"                   
 [198] "APPLICATION SITE IRRITATION"                 
 [199] "APPLICATION SITE VESICLES"                   
 [200] "CHEST DISCOMFORT"                            
 [201] "HEADACHE"                                    
 [202] "DIARRHOEA"                                   
 [203] "HYPERHIDROSIS"                               
 [204] "UPPER RESPIRATORY TRACT INFECTION"           
 [205] "UPPER RESPIRATORY TRACT INFECTION"           
 [206] "UPPER RESPIRATORY TRACT INFECTION"           
 [207] "UPPER RESPIRATORY TRACT INFECTION"           
 [208] "MICTURITION URGENCY"                         
 [209] "UPPER RESPIRATORY TRACT INFECTION"           
 [210] "UPPER RESPIRATORY TRACT INFECTION"           
 [211] "DIARRHOEA"                                   
 [212] "APPLICATION SITE PRURITUS"                   
 [213] "APPLICATION SITE ERYTHEMA"                   
 [214] "APPLICATION SITE PRURITUS"                   
 [215] "APPLICATION SITE IRRITATION"                 
 [216] "APPLICATION SITE VESICLES"                   
 [217] "APPLICATION SITE ERYTHEMA"                   
 [218] "APPLICATION SITE PRURITUS"                   
 [219] "SALIVARY HYPERSECRETION"                     
 [220] "PARAESTHESIA"                                
 [221] "SKIN IRRITATION"                             
 [222] "RECTAL HAEMORRHAGE"                          
 [223] "RECTAL HAEMORRHAGE"                          
 [224] "APPLICATION SITE IRRITATION"                 
 [225] "DIARRHOEA"                                   
 [226] "INSOMNIA"                                    
 [227] "BIOPSY PROSTATE"                             
 [228] "BENIGN PROSTATIC HYPERPLASIA"                
 [229] "APPLICATION SITE PRURITUS"                   
 [230] "APPLICATION SITE PRURITUS"                   
 [231] "APPLICATION SITE DERMATITIS"                 
 [232] "HYPERHIDROSIS"                               
 [233] "APPLICATION SITE IRRITATION"                 
 [234] "APPLICATION SITE IRRITATION"                 
 [235] "APPLICATION SITE IRRITATION"                 
 [236] "APPLICATION SITE IRRITATION"                 
 [237] "CHILLS"                                      
 [238] "CHILLS"                                      
 [239] "APPLICATION SITE IRRITATION"                 
 [240] "CATARACT OPERATION"                          
 [241] "UPPER RESPIRATORY TRACT INFECTION"           
 [242] "APPLICATION SITE IRRITATION"                 
 [243] "APPLICATION SITE IRRITATION"                 
 [244] "OEDEMA PERIPHERAL"                           
 [245] "OEDEMA PERIPHERAL"                           
 [246] "APPLICATION SITE IRRITATION"                 
 [247] "PRURITUS"                                    
 [248] "APPLICATION SITE IRRITATION"                 
 [249] "PRURITUS"                                    
 [250] "APPLICATION SITE ERYTHEMA"                   
 [251] "SOMNOLENCE"                                  
 [252] "APPLICATION SITE ERYTHEMA"                   
 [253] "SOMNOLENCE"                                  
 [254] "DECREASED APPETITE"                          
 [255] "DISORIENTATION"                              
 [256] "DECREASED APPETITE"                          
 [257] "APPLICATION SITE DERMATITIS"                 
 [258] "UPPER RESPIRATORY TRACT INFECTION"           
 [259] "UPPER RESPIRATORY TRACT INFECTION"           
 [260] "APPLICATION SITE DERMATITIS"                 
 [261] "APPLICATION SITE DERMATITIS"                 
 [262] "ARTHRITIS"                                   
 [263] "HYPOTENSION"                                 
 [264] "TACHYCARDIA"                                 
 [265] "MYOCARDIAL INFARCTION"                       
 [266] "UPPER RESPIRATORY TRACT INFECTION"           
 [267] "UPPER RESPIRATORY TRACT INFECTION"           
 [268] "HYPOTENSION"                                 
 [269] "TACHYCARDIA"                                 
 [270] "WEIGHT DECREASED"                            
 [271] "WEIGHT DECREASED"                            
 [272] "DIARRHOEA"                                   
 [273] "VOMITING"                                    
 [274] "CHEST DISCOMFORT"                            
 [275] "APPLICATION SITE IRRITATION"                 
 [276] "APPLICATION SITE IRRITATION"                 
 [277] "TRANSIENT ISCHAEMIC ATTACK"                  
 [278] "SINUS BRADYCARDIA"                           
 [279] "HYPERHIDROSIS"                               
 [280] "FATIGUE"                                     
 [281] "MALAISE"                                     
 [282] "MALAISE"                                     
 [283] "RASH"                                        
 [284] "DIZZINESS"                                   
 [285] "NAUSEA"                                      
 [286] "CYSTITIS"                                    
 [287] "VOMITING"                                    
 [288] "DIARRHOEA"                                   
 [289] "EXCORIATION"                                 
 [290] "SKIN LACERATION"                             
 [291] "ARTHRALGIA"                                  
 [292] "CONTUSION"                                   
 [293] "MYOCARDIAL INFARCTION"                       
 [294] "VENTRICULAR SEPTAL DEFECT"                   
 [295] "INFLUENZA"                                   
 [296] "CARDIAC DISORDER"                            
 [297] "RASH"                                        
 [298] "PRURITUS"                                    
 [299] "RASH"                                        
 [300] "PRURITUS"                                    
 [301] "VERTIGO"                                     
 [302] "PALPITATIONS"                                
 [303] "ELECTROCARDIOGRAM ST SEGMENT DEPRESSION"     
 [304] "ELECTROCARDIOGRAM ST SEGMENT DEPRESSION"     
 [305] "WOLFF-PARKINSON-WHITE SYNDROME"              
 [306] "WOLFF-PARKINSON-WHITE SYNDROME"              
 [307] "APPLICATION SITE PRURITUS"                   
 [308] "ABDOMINAL DISCOMFORT"                        
 [309] "RASH"                                        
 [310] "APPLICATION SITE IRRITATION"                 
 [311] "MALAISE"                                     
 [312] "HYPERHIDROSIS"                               
 [313] "CHILLS"                                      
 [314] "DIZZINESS"                                   
 [315] "DIARRHOEA"                                   
 [316] "SINUS BRADYCARDIA"                           
 [317] "PRURITUS"                                    
 [318] "ERYTHEMA"                                    
 [319] "BLOOD GLUCOSE INCREASED"                     
 [320] "BLOOD GLUCOSE INCREASED"                     
 [321] "RASH"                                        
 [322] "PRURITUS"                                    
 [323] "ERYTHEMA"                                    
 [324] "OEDEMA"                                      
 [325] "RASH"                                        
 [326] "PRURITUS"                                    
 [327] "INFLUENZA"                                   
 [328] "RASH"                                        
 [329] "PRURITUS"                                    
 [330] "RASH"                                        
 [331] "NASOPHARYNGITIS"                             
 [332] "NASOPHARYNGITIS"                             
 [333] "PRURITUS"                                    
 [334] "RASH"                                        
 [335] "RASH"                                        
 [336] "INFLUENZA"                                   
 [337] "INFLUENZA"                                   
 [338] "OEDEMA PERIPHERAL"                           
 [339] "BLOOD GLUCOSE INCREASED"                     
 [340] "DYSPNOEA"                                    
 [341] "ERYTHEMA"                                    
 [342] "ERYTHEMA"                                    
 [343] "ERYTHEMA"                                    
 [344] "ATRIAL FLUTTER"                              
 [345] "ATRIAL FLUTTER"                              
 [346] "ATRIAL FIBRILLATION"                         
 [347] "ATRIAL FIBRILLATION"                         
 [348] "HYPERHIDROSIS"                               
 [349] "HYPERHIDROSIS"                               
 [350] "BLISTER"                                     
 [351] "PRURITUS"                                    
 [352] "BLISTER"                                     
 [353] "PRURITUS"                                    
 [354] "ERYTHEMA"                                    
 [355] "ERYTHEMA"                                    
 [356] "VIRAL INFECTION"                             
 [357] "RASH"                                        
 [358] "PRURITUS"                                    
 [359] "OEDEMA"                                      
 [360] "RASH"                                        
 [361] "PRURITUS"                                    
 [362] "RASH"                                        
 [363] "RASH"                                        
 [364] "RASH"                                        
 [365] "PRURITUS"                                    
 [366] "PRURITUS"                                    
 [367] "BURNING SENSATION"                           
 [368] "POLLAKIURIA"                                 
 [369] "FLATULENCE"                                  
 [370] "POLLAKIURIA"                                 
 [371] "FLATULENCE"                                  
 [372] "PARKINSON'S DISEASE"                         
 [373] "COMPLETED SUICIDE"                           
 [374] "RASH"                                        
 [375] "ERYTHEMA"                                    
 [376] "HYPERBILIRUBINAEMIA"                         
 [377] "DYSPEPSIA"                                   
 [378] "DYSPEPSIA"                                   
 [379] "PRURITUS"                                    
 [380] "EXCORIATION"                                 
 [381] "PRURITUS"                                    
 [382] "PRURITUS"                                    
 [383] "ERYTHEMA"                                    
 [384] "PRURITUS"                                    
 [385] "RASH PRURITIC"                               
 [386] "WOUND HAEMORRHAGE"                           
 [387] "NAUSEA"                                      
 [388] "VOMITING"                                    
 [389] "VENTRICULAR HYPERTROPHY"                     
 [390] "ELECTROCARDIOGRAM ST SEGMENT DEPRESSION"     
 [391] "COLON CANCER"                                
 [392] "ABDOMINAL PAIN"                              
 [393] "ANXIETY"                                     
 [394] "IRRITABILITY"                                
 [395] "IRRITABILITY"                                
 [396] "DIARRHOEA"                                   
 [397] "EXCORIATION"                                 
 [398] "EXCORIATION"                                 
 [399] "PRURITUS"                                    
 [400] "PRURITUS"                                    
 [401] "SYNCOPE"                                     
 [402] "SYNCOPE"                                     
 [403] "ERYTHEMA"                                    
 [404] "PRURITUS"                                    
 [405] "EXCORIATION"                                 
 [406] "ERYTHEMA"                                    
 [407] "PRURITUS"                                    
 [408] "EXCORIATION"                                 
 [409] "ERYTHEMA"                                    
 [410] "PRURITUS"                                    
 [411] "ERYTHEMA"                                    
 [412] "PRURITUS"                                    
 [413] "BLOOD CREATINE PHOSPHOKINASE INCREASED"      
 [414] "BLOOD CREATINE PHOSPHOKINASE INCREASED"      
 [415] "CONJUNCTIVITIS"                              
 [416] "CONJUNCTIVITIS"                              
 [417] "SINUS ARRHYTHMIA"                            
 [418] "SINUS ARRHYTHMIA"                            
 [419] "POSTNASAL DRIP"                              
 [420] "POSTNASAL DRIP"                              
 [421] "HEADACHE"                                    
 [422] "STUPOR"                                      
 [423] "TRANSIENT ISCHAEMIC ATTACK"                  
 [424] "VISION BLURRED"                              
 [425] "DIZZINESS"                                   
 [426] "APPLICATION SITE VESICLES"                   
 [427] "DIZZINESS"                                   
 [428] "DIZZINESS"                                   
 [429] "MYOCARDIAL INFARCTION"                       
 [430] "MYOCARDIAL INFARCTION"                       
 [431] "SINUS BRADYCARDIA"                           
 [432] "SINUS BRADYCARDIA"                           
 [433] "HEART RATE IRREGULAR"                        
 [434] "HEART RATE IRREGULAR"                        
 [435] "DIZZINESS"                                   
 [436] "HEADACHE"                                    
 [437] "HEART RATE IRREGULAR"                        
 [438] "HEART RATE IRREGULAR"                        
 [439] "AGITATION"                                   
 [440] "ERYTHEMA"                                    
 [441] "DIZZINESS"                                   
 [442] "ATRIAL FIBRILLATION"                         
 [443] "NASOPHARYNGITIS"                             
 [444] "APPLICATION SITE PRURITUS"                   
 [445] "VENTRICULAR SEPTAL DEFECT"                   
 [446] "APPLICATION SITE PRURITUS"                   
 [447] "CYSTITIS"                                    
 [448] "ALCOHOL USE"                                 
 [449] "ATRIAL FIBRILLATION"                         
 [450] "ATRIAL FIBRILLATION"                         
 [451] "APPLICATION SITE PRURITUS"                   
 [452] "APPLICATION SITE ERYTHEMA"                   
 [453] "APPLICATION SITE ERYTHEMA"                   
 [454] "APPLICATION SITE SWELLING"                   
 [455] "HEART RATE INCREASED"                        
 [456] "HEART RATE INCREASED"                        
 [457] "DIZZINESS"                                   
 [458] "DIZZINESS"                                   
 [459] "MUSCLE SPASMS"                               
 [460] "DIARRHOEA"                                   
 [461] "VENTRICULAR EXTRASYSTOLES"                   
 [462] "VENTRICULAR EXTRASYSTOLES"                   
 [463] "APPLICATION SITE DERMATITIS"                 
 [464] "COUGH"                                       
 [465] "NASOPHARYNGITIS"                             
 [466] "COUGH"                                       
 [467] "NASOPHARYNGITIS"                             
 [468] "HEADACHE"                                    
 [469] "HEADACHE"                                    
 [470] "HOT FLUSH"                                   
 [471] "APPLICATION SITE PRURITUS"                   
 [472] "MYOCARDIAL INFARCTION"                       
 [473] "ABDOMINAL PAIN"                              
 [474] "CONSTIPATION"                                
 [475] "ATRIAL HYPERTROPHY"                          
 [476] "ATRIAL HYPERTROPHY"                          
 [477] "APPLICATION SITE PRURITUS"                   
 [478] "APPLICATION SITE PRURITUS"                   
 [479] "APPLICATION SITE VESICLES"                   
 [480] "APPLICATION SITE VESICLES"                   
 [481] "PAIN IN EXTREMITY"                           
 [482] "APPLICATION SITE PRURITUS"                   
 [483] "APPLICATION SITE SWELLING"                   
 [484] "SINUS BRADYCARDIA"                           
 [485] "HEADACHE"                                    
 [486] "APPLICATION SITE ERYTHEMA"                   
 [487] "DIZZINESS"                                   
 [488] "APPLICATION SITE PRURITUS"                   
 [489] "DIZZINESS"                                   
 [490] "APPLICATION SITE PRURITUS"                   
 [491] "APPLICATION SITE ERYTHEMA"                   
 [492] "APPLICATION SITE PRURITUS"                   
 [493] "APPLICATION SITE ERYTHEMA"                   
 [494] "ERYTHEMA"                                    
 [495] "APPLICATION SITE ERYTHEMA"                   
 [496] "APPLICATION SITE SWELLING"                   
 [497] "ERYTHEMA"                                    
 [498] "APPLICATION SITE ERYTHEMA"                   
 [499] "APPLICATION SITE SWELLING"                   
 [500] "PRURITUS"                                    
 [501] "PRURITUS"                                    
 [502] "MYOCARDIAL INFARCTION"                       
 [503] "MYOCARDIAL INFARCTION"                       
 [504] "APPLICATION SITE PRURITUS"                   
 [505] "DIZZINESS"                                   
 [506] "DIZZINESS"                                   
 [507] "HYPOTENSION"                                 
 [508] "OEDEMA PERIPHERAL"                           
 [509] "OEDEMA PERIPHERAL"                           
 [510] "APPLICATION SITE PRURITUS"                   
 [511] "APPLICATION SITE ERYTHEMA"                   
 [512] "APPLICATION SITE WARMTH"                     
 [513] "APPLICATION SITE PRURITUS"                   
 [514] "APPLICATION SITE ERYTHEMA"                   
 [515] "APPLICATION SITE WARMTH"                     
 [516] "EPISTAXIS"                                   
 [517] "APPLICATION SITE DERMATITIS"                 
 [518] "APPLICATION SITE DERMATITIS"                 
 [519] "APPLICATION SITE DERMATITIS"                 
 [520] "DIARRHOEA"                                   
 [521] "APPLICATION SITE DERMATITIS"                 
 [522] "DIARRHOEA"                                   
 [523] "ABDOMINAL PAIN"                              
 [524] "APPLICATION SITE PRURITUS"                   
 [525] "MYOCARDIAL INFARCTION"                       
 [526] "MYOCARDIAL INFARCTION"                       
 [527] "APPLICATION SITE ERYTHEMA"                   
 [528] "MUSCLE SPASMS"                               
 [529] "MUSCLE SPASMS"                               
 [530] "MYOCARDIAL INFARCTION"                       
 [531] "SINUS BRADYCARDIA"                           
 [532] "MYOCARDIAL INFARCTION"                       
 [533] "SINUS BRADYCARDIA"                           
 [534] "COUGH"                                       
 [535] "PHARYNGEAL ERYTHEMA"                         
 [536] "COUGH"                                       
 [537] "PHARYNGEAL ERYTHEMA"                         
 [538] "MYOCARDIAL INFARCTION"                       
 [539] "SINUS BRADYCARDIA"                           
 [540] "PRURITUS"                                    
 [541] "RASH"                                        
 [542] "OEDEMA PERIPHERAL"                           
 [543] "APPLICATION SITE DERMATITIS"                 
 [544] "RASH"                                        
 [545] "APPLICATION SITE DERMATITIS"                 
 [546] "APPLICATION SITE PRURITUS"                   
 [547] "NASOPHARYNGITIS"                             
 [548] "NASOPHARYNGITIS"                             
 [549] "APPLICATION SITE DERMATITIS"                 
 [550] "APPLICATION SITE VESICLES"                   
 [551] "APPLICATION SITE PRURITUS"                   
 [552] "ACROCHORDON EXCISION"                        
 [553] "APPLICATION SITE DERMATITIS"                 
 [554] "APPLICATION SITE PRURITUS"                   
 [555] "APPLICATION SITE DERMATITIS"                 
 [556] "APPLICATION SITE PRURITUS"                   
 [557] "DIZZINESS"                                   
 [558] "APPLICATION SITE VESICLES"                   
 [559] "PRURITUS"                                    
 [560] "RASH"                                        
 [561] "PRURITUS"                                    
 [562] "RASH"                                        
 [563] "SKIN IRRITATION"                             
 [564] "SKIN IRRITATION"                             
 [565] "DIZZINESS"                                   
 [566] "APPLICATION SITE DERMATITIS"                 
 [567] "APPLICATION SITE DERMATITIS"                 
 [568] "PRURITUS"                                    
 [569] "COUGH"                                       
 [570] "APPLICATION SITE DERMATITIS"                 
 [571] "DIZZINESS"                                   
 [572] "ELECTROCARDIOGRAM T WAVE INVERSION"          
 [573] "DIZZINESS"                                   
 [574] "DIZZINESS"                                   
 [575] "HEADACHE"                                    
 [576] "DIARRHOEA"                                   
 [577] "APPLICATION SITE DERMATITIS"                 
 [578] "APPLICATION SITE PRURITUS"                   
 [579] "APPLICATION SITE DISCHARGE"                  
 [580] "HIP FRACTURE"                                
 [581] "COUGH"                                       
 [582] "UPPER RESPIRATORY TRACT INFECTION"           
 [583] "SKIN LESION EXCISION"                        
 [584] "BENIGN PROSTATIC HYPERPLASIA"                
 [585] "LOCALISED INFECTION"                         
 [586] "LOCALISED INFECTION"                         
 [587] "BLOOD URINE PRESENT"                         
 [588] "CYSTOSCOPY"                                  
 [589] "BENIGN PROSTATIC HYPERPLASIA"                
 [590] "PYREXIA"                                     
 [591] "DEHYDRATION"                                 
 [592] "HYPOTENSION"                                 
 [593] "ORTHOSTATIC HYPOTENSION"                     
 [594] "ORTHOSTATIC HYPOTENSION"                     
 [595] "HEMIANOPIA HOMONYMOUS"                       
 [596] "APPLICATION SITE DERMATITIS"                 
 [597] "APPLICATION SITE PRURITUS"                   
 [598] "APPLICATION SITE DERMATITIS"                 
 [599] "APPLICATION SITE PRURITUS"                   
 [600] "SINUS BRADYCARDIA"                           
 [601] "DIABETES MELLITUS"                           
 [602] "RASH"                                        
 [603] "APPLICATION SITE PRURITUS"                   
 [604] "RASH"                                        
 [605] "APPLICATION SITE PRURITUS"                   
 [606] "APPLICATION SITE IRRITATION"                 
 [607] "APPLICATION SITE IRRITATION"                 
 [608] "RASH"                                        
 [609] "APPLICATION SITE PRURITUS"                   
 [610] "DRUG ERUPTION"                               
 [611] "VOMITING"                                    
 [612] "VOMITING"                                    
 [613] "NASAL CONGESTION"                            
 [614] "NIGHTMARE"                                   
 [615] "RASH MACULO-PAPULAR"                         
 [616] "BIOPSY"                                      
 [617] "DIZZINESS"                                   
 [618] "DIZZINESS"                                   
 [619] "ALLERGIC GRANULOMATOUS ANGIITIS"             
 [620] "APPLICATION SITE PRURITUS"                   
 [621] "FEELING COLD"                                
 [622] "APPLICATION SITE DERMATITIS"                 
 [623] "ELECTROCARDIOGRAM ST SEGMENT DEPRESSION"     
 [624] "APPLICATION SITE BLEEDING"                   
 [625] "APPLICATION SITE DERMATITIS"                 
 [626] "APPLICATION SITE PRURITUS"                   
 [627] "VOMITING"                                    
 [628] "SYNCOPE"                                     
 [629] "COUGH"                                       
 [630] "DIZZINESS"                                   
 [631] "PYREXIA"                                     
 [632] "BLOOD ALKALINE PHOSPHATASE INCREASED"        
 [633] "SYNCOPE"                                     
 [634] "TRANSIENT ISCHAEMIC ATTACK"                  
 [635] "TRANSIENT ISCHAEMIC ATTACK"                  
 [636] "NEPHROLITHIASIS"                             
 [637] "PRURITUS"                                    
 [638] "SINUS BRADYCARDIA"                           
 [639] "SINUS BRADYCARDIA"                           
 [640] "FACIAL BONES FRACTURE"                       
 [641] "DIZZINESS"                                   
 [642] "SALIVARY HYPERSECRETION"                     
 [643] "SKIN IRRITATION"                             
 [644] "DIZZINESS"                                   
 [645] "URINARY TRACT INFECTION"                     
 [646] "FALL"                                        
 [647] "CONTUSION"                                   
 [648] "PRURITUS"                                    
 [649] "PRURITUS"                                    
 [650] "CHEST PAIN"                                  
 [651] "HAEMOPTYSIS"                                 
 [652] "HAEMOPTYSIS"                                 
 [653] "RALES"                                       
 [654] "RALES"                                       
 [655] "SKIN EXFOLIATION"                            
 [656] "SKIN EXFOLIATION"                            
 [657] "VOMITING"                                    
 [658] "NASOPHARYNGITIS"                             
 [659] "SKIN IRRITATION"                             
 [660] "PRURITUS"                                    
 [661] "NASOPHARYNGITIS"                             
 [662] "SKIN IRRITATION"                             
 [663] "PRURITUS"                                    
 [664] "RASH"                                        
 [665] "RASH"                                        
 [666] "ERYTHEMA"                                    
 [667] "ERYTHEMA"                                    
 [668] "PRURITUS"                                    
 [669] "RASH"                                        
 [670] "PRURITUS"                                    
 [671] "RASH"                                        
 [672] "NASAL CONGESTION"                            
 [673] "INSOMNIA"                                    
 [674] "INSOMNIA"                                    
 [675] "APPLICATION SITE INDURATION"                 
 [676] "APPLICATION SITE PRURITUS"                   
 [677] "APPLICATION SITE PRURITUS"                   
 [678] "FALL"                                        
 [679] "FALL"                                        
 [680] "HIP FRACTURE"                                
 [681] "GASTROINTESTINAL HAEMORRHAGE"                
 [682] "SUPRAVENTRICULAR EXTRASYSTOLES"              
 [683] "PRURITUS"                                    
 [684] "ERYTHEMA"                                    
 [685] "RASH"                                        
 [686] "APPLICATION SITE DERMATITIS"                 
 [687] "SKIN IRRITATION"                             
 [688] "AGITATION"                                   
 [689] "MYOCARDIAL INFARCTION"                       
 [690] "VERTIGO"                                     
 [691] "PRURITUS"                                    
 [692] "ERYTHEMA"                                    
 [693] "HEADACHE"                                    
 [694] "DIZZINESS"                                   
 [695] "MYOCARDIAL INFARCTION"                       
 [696] "SYNCOPE VASOVAGAL"                           
 [697] "HEADACHE"                                    
 [698] "NAUSEA"                                      
 [699] "SKIN IRRITATION"                             
 [700] "SKIN IRRITATION"                             
 [701] "FALL"                                        
 [702] "SKIN LACERATION"                             
 [703] "SYNCOPE"                                     
 [704] "COMPLEX PARTIAL SEIZURES"                    
 [705] "SYNCOPE"                                     
 [706] "SINUS BRADYCARDIA"                           
 [707] "ATRIOVENTRICULAR BLOCK FIRST DEGREE"         
 [708] "APPLICATION SITE IRRITATION"                 
 [709] "COUGH"                                       
 [710] "SHOULDER PAIN"                               
 [711] "APPLICATION SITE PRURITUS"                   
 [712] "PRURITUS"                                    
 [713] "PRURITUS"                                    
 [714] "PRURITUS"                                    
 [715] "ERYTHEMA"                                    
 [716] "COLD SWEAT"                                  
 [717] "CHILLS"                                      
 [718] "COLD SWEAT"                                  
 [719] "CHILLS"                                      
 [720] "COLD SWEAT"                                  
 [721] "CHILLS"                                      
 [722] "DIARRHOEA"                                   
 [723] "PRURITUS"                                    
 [724] "RASH"                                        
 [725] "ERYTHEMA"                                    
 [726] "PRURITUS"                                    
 [727] "MYOCARDIAL INFARCTION"                       
 [728] "DYSPNOEA"                                    
 [729] "ATRIAL FIBRILLATION"                         
 [730] "CARDIAC FAILURE CONGESTIVE"                  
 [731] "HYPONATRAEMIA"                               
 [732] "BURNING SENSATION"                           
 [733] "SOMNOLENCE"                                  
 [734] "RASH"                                        
 [735] "RASH"                                        
 [736] "APPLICATION SITE ERYTHEMA"                   
 [737] "APPLICATION SITE ERYTHEMA"                   
 [738] "VOMITING"                                    
 [739] "PRURITUS"                                    
 [740] "ERYTHEMA"                                    
 [741] "BLISTER"                                     
 [742] "APPLICATION SITE IRRITATION"                 
 [743] "NASOPHARYNGITIS"                             
 [744] "NASOPHARYNGITIS"                             
 [745] "RASH"                                        
 [746] "ERYTHEMA"                                    
 [747] "RASH"                                        
 [748] "ERYTHEMA"                                    
 [749] "PRURITUS"                                    
 [750] "PRURITUS"                                    
 [751] "ERYTHEMA"                                    
 [752] "PRURITUS"                                    
 [753] "RASH"                                        
 [754] "PRURITUS"                                    
 [755] "APPLICATION SITE DESQUAMATION"               
 [756] "HIP FRACTURE"                                
 [757] "HIP FRACTURE"                                
 [758] "DELUSION"                                    
 [759] "PSYCHOMOTOR HYPERACTIVITY"                   
 [760] "SUPRAVENTRICULAR TACHYCARDIA"                
 [761] "SUPRAVENTRICULAR TACHYCARDIA"                
 [762] "ATRIAL FIBRILLATION"                         
 [763] "ATRIOVENTRICULAR BLOCK FIRST DEGREE"         
 [764] "PRURITUS"                                    
 [765] "RASH"                                        
 [766] "BLISTER"                                     
 [767] "ELECTROCARDIOGRAM T WAVE AMPLITUDE DECREASED"
 [768] "NASOPHARYNGITIS"                             
 [769] "NASOPHARYNGITIS"                             
 [770] "ERYTHEMA"                                    
 [771] "ERYTHEMA"                                    
 [772] "APPLICATION SITE DERMATITIS"                 
 [773] "APPLICATION SITE PRURITUS"                   
 [774] "APPLICATION SITE PRURITUS"                   
 [775] "NASOPHARYNGITIS"                             
 [776] "APPLICATION SITE URTICARIA"                  
 [777] "APPLICATION SITE DERMATITIS"                 
 [778] "APPLICATION SITE PRURITUS"                   
 [779] "HEADACHE"                                    
 [780] "EAR INFECTION"                               
 [781] "EAR INFECTION"                               
 [782] "GLOSSITIS"                                   
 [783] "NASOPHARYNGITIS"                             
 [784] "APPLICATION SITE DERMATITIS"                 
 [785] "RASH PRURITIC"                               
 [786] "RASH PRURITIC"                               
 [787] "VENTRICULAR EXTRASYSTOLES"                   
 [788] "VENTRICULAR EXTRASYSTOLES"                   
 [789] "CONJUNCTIVAL HAEMORRHAGE"                    
 [790] "PARAESTHESIA ORAL"                           
 [791] "NASOPHARYNGITIS"                             
 [792] "NASOPHARYNGITIS"                             
 [793] "SUPRAVENTRICULAR EXTRASYSTOLES"              
 [794] "SUPRAVENTRICULAR EXTRASYSTOLES"              
 [795] "CERUMEN IMPACTION"                           
 [796] "ASTHENIA"                                    
 [797] "APPLICATION SITE ERYTHEMA"                   
 [798] "NAUSEA"                                      
 [799] "VOMITING"                                    
 [800] "NAUSEA"                                      
 [801] "VOMITING"                                    
 [802] "APPLICATION SITE ERYTHEMA"                   
 [803] "CATARACT OPERATION"                          
 [804] "APPLICATION SITE PRURITUS"                   
 [805] "BACK PAIN"                                   
 [806] "DELIRIUM"                                    
 [807] "RASH PRURITIC"                               
 [808] "RASH PRURITIC"                               
 [809] "ASTHENIA"                                    
 [810] "GASTROENTERITIS VIRAL"                       
 [811] "DYSURIA"                                     
 [812] "DYSPEPSIA"                                   
 [813] "URINARY TRACT INFECTION"                     
 [814] "URINARY TRACT INFECTION"                     
 [815] "ASTHENIA"                                    
 [816] "DYSPEPSIA"                                   
 [817] "PELVIC PAIN"                                 
 [818] "GASTROOESOPHAGEAL REFLUX DISEASE"            
 [819] "PELVIC PAIN"                                 
 [820] "VAGINAL MYCOSIS"                             
 [821] "CERVICITIS"                                  
 [822] "VAGINAL MYCOSIS"                             
 [823] "CERVICITIS"                                  
 [824] "ABDOMINAL PAIN"                              
 [825] "ABDOMINAL PAIN"                              
 [826] "APPLICATION SITE PRURITUS"                   
 [827] "DIZZINESS"                                   
 [828] "APPLICATION SITE DERMATITIS"                 
 [829] "APPLICATION SITE DERMATITIS"                 
 [830] "SHOULDER PAIN"                               
 [831] "RASH"                                        
 [832] "APPLICATION SITE ERYTHEMA"                   
 [833] "COUGH"                                       
 [834] "SHOULDER PAIN"                               
 [835] "RASH"                                        
 [836] "APPLICATION SITE IRRITATION"                 
 [837] "APPLICATION SITE IRRITATION"                 
 [838] "NAUSEA"                                      
 [839] "NAUSEA"                                      
 [840] "BRONCHITIS"                                  
 [841] "BUNDLE BRANCH BLOCK RIGHT"                   
 [842] "ELECTROCARDIOGRAM T WAVE INVERSION"          
 [843] "BUNDLE BRANCH BLOCK RIGHT"                   
 [844] "SUPRAVENTRICULAR EXTRASYSTOLES"              
 [845] "ELECTROCARDIOGRAM ST SEGMENT DEPRESSION"     
 [846] "SUPRAVENTRICULAR EXTRASYSTOLES"              
 [847] "SKIN IRRITATION"                             
 [848] "SKIN IRRITATION"                             
 [849] "APPLICATION SITE ERYTHEMA"                   
 [850] "APPLICATION SITE PRURITUS"                   
 [851] "APPLICATION SITE ERYTHEMA"                   
 [852] "APPLICATION SITE PRURITUS"                   
 [853] "APPLICATION SITE ERYTHEMA"                   
 [854] "APPLICATION SITE ERYTHEMA"                   
 [855] "HYPERHIDROSIS"                               
 [856] "HYPERHIDROSIS"                               
 [857] "DIARRHOEA"                                   
 [858] "DIARRHOEA"                                   
 [859] "SOMNOLENCE"                                  
 [860] "APPLICATION SITE PRURITUS"                   
 [861] "DYSURIA"                                     
 [862] "ARTHRALGIA"                                  
 [863] "SINUS BRADYCARDIA"                           
 [864] "DIZZINESS"                                   
 [865] "DIARRHOEA"                                   
 [866] "ERYTHEMA"                                    
 [867] "NASOPHARYNGITIS"                             
 [868] "COUGH"                                       
 [869] "BACK PAIN"                                   
 [870] "BACK PAIN"                                   
 [871] "SKIN IRRITATION"                             
 [872] "SKIN IRRITATION"                             
 [873] "PRURITUS"                                    
 [874] "ERYTHEMA"                                    
 [875] "EAR PAIN"                                    
 [876] "EAR PAIN"                                    
 [877] "PRURITUS"                                    
 [878] "ERYTHEMA"                                    
 [879] "DERMATITIS CONTACT"                          
 [880] "DERMATITIS CONTACT"                          
 [881] "SINUS BRADYCARDIA"                           
 [882] "NEPHROLITHIASIS"                             
 [883] "SINUS BRADYCARDIA"                           
 [884] "APPLICATION SITE REACTION"                   
 [885] "NAUSEA"                                      
 [886] "NAUSEA"                                      
 [887] "SINUS BRADYCARDIA"                           
 [888] "PALPITATIONS"                                
 [889] "HYPERHIDROSIS"                               
 [890] "DIZZINESS"                                   
 [891] "CONFUSIONAL STATE"                           
 [892] "SINUS BRADYCARDIA"                           
 [893] "SINUS BRADYCARDIA"                           
 [894] "NASOPHARYNGITIS"                             
 [895] "NASOPHARYNGITIS"                             
 [896] "EMPHYSEMA"                                   
 [897] "HYPERHIDROSIS"                               
 [898] "PRURITUS"                                    
 [899] "ELECTROCARDIOGRAM T WAVE INVERSION"          
 [900] "ELECTROCARDIOGRAM T WAVE INVERSION"          
 [901] "EAR INFECTION"                               
 [902] "ELECTROCARDIOGRAM T WAVE AMPLITUDE DECREASED"
 [903] "EAR INFECTION"                               
 [904] "DIARRHOEA"                                   
 [905] "DIARRHOEA"                                   
 [906] "CONFUSIONAL STATE"                           
 [907] "RESTLESSNESS"                                
 [908] "RESTLESSNESS"                                
 [909] "LETHARGY"                                    
 [910] "HYPERHIDROSIS"                               
 [911] "FATIGUE"                                     
 [912] "PRURITUS"                                    
 [913] "PRURITUS"                                    
 [914] "SYNCOPE"                                     
 [915] "HYPERSOMNIA"                                 
 [916] "FATIGUE"                                     
 [917] "ATRIAL FLUTTER"                              
 [918] "BUNDLE BRANCH BLOCK RIGHT"                   
 [919] "VENTRICULAR SEPTAL DEFECT"                   
 [920] "BLISTER"                                     
 [921] "BLISTER"                                     
 [922] "PRURITUS"                                    
 [923] "BLISTER"                                     
 [924] "ERYTHEMA"                                    
 [925] "ELECTROCARDIOGRAM ST SEGMENT DEPRESSION"     
 [926] "PRURITUS"                                    
 [927] "PRURITUS"                                    
 [928] "ERYTHEMA"                                    
 [929] "MALIGNANT FIBROUS HISTIOCYTOMA"              
 [930] "MALIGNANT FIBROUS HISTIOCYTOMA"              
 [931] "UPPER RESPIRATORY TRACT INFECTION"           
 [932] "UPPER RESPIRATORY TRACT INFECTION"           
 [933] "ERYTHEMA"                                    
 [934] "PRURITUS"                                    
 [935] "PRURITUS"                                    
 [936] "ERYTHEMA"                                    
 [937] "PRURITUS"                                    
 [938] "SWELLING"                                    
 [939] "BLISTER"                                     
 [940] "HYPERSENSITIVITY"                            
 [941] "HYPERSENSITIVITY"                            
 [942] "PROSTATE CANCER"                             
 [943] "HALLUCINATION"                               
 [944] "DELUSION"                                    
 [945] "PRURITUS"                                    
 [946] "PRURITUS"                                    
 [947] "BLOOD CHOLESTEROL INCREASED"                 
 [948] "ERYTHEMA"                                    
 [949] "PRURITUS"                                    
 [950] "ERYTHEMA"                                    
 [951] "PRURITUS"                                    
 [952] "BLISTER"                                     
 [953] "BLISTER"                                     
 [954] "ERYTHEMA"                                    
 [955] "ABDOMINAL PAIN"                              
 [956] "ULCER"                                       
 [957] "ERYTHEMA"                                    
 [958] "ERYTHEMA"                                    
 [959] "PRURITUS"                                    
 [960] "ERYTHEMA"                                    
 [961] "PRURITUS"                                    
 [962] "COGNITIVE DISORDER"                          
 [963] "HEADACHE"                                    
 [964] "VISION BLURRED"                              
 [965] "HEADACHE"                                    
 [966] "VISION BLURRED"                              
 [967] "URTICARIA"                                   
 [968] "ERYTHEMA"                                    
 [969] "URTICARIA"                                   
 [970] "PRURITUS"                                    
 [971] "HEADACHE"                                    
 [972] "HEADACHE"                                    
 [973] "ERYTHEMA"                                    
 [974] "ERYTHEMA"                                    
 [975] "PRURITUS"                                    
 [976] "HYPERHIDROSIS"                               
 [977] "ELECTROCARDIOGRAM T WAVE INVERSION"          
 [978] "CHEST PAIN"                                  
 [979] "COUGH"                                       
 [980] "FATIGUE"                                     
 [981] "COUGH"                                       
 [982] "BACK PAIN"                                   
 [983] "RHINORRHOEA"                                 
 [984] "SKIN IRRITATION"                             
 [985] "ANXIETY"                                     
 [986] "IRRITABILITY"                                
 [987] "RHINORRHOEA"                                 
 [988] "SKIN IRRITATION"                             
 [989] "SKIN IRRITATION"                             
 [990] "SKIN IRRITATION"                             
 [991] "SINUS BRADYCARDIA"                           
 [992] "SKIN IRRITATION"                             
 [993] "WOUND"                                       
 [994] "WOUND"                                       
 [995] "INCREASED APPETITE"                          
 [996] "INCREASED APPETITE"                          
 [997] "SKIN IRRITATION"                             
 [998] "HYPERHIDROSIS"                               
 [999] "CONFUSIONAL STATE"                           
[1000] "INSOMNIA"                                    
 [ reached getOption("max.print") -- omitted 191 entries ]
attr(,"label")
[1] "Dictionary-Derived Term"
 [1] "STUDYID"  "USUBJID"  "SUBJID"   "RFSTDTC"  "RFENDTC"  "RFXSTDTC" "RFXENDTC"
 [8] "RFICDTC"  "RFPENDTC" "DTHDTC"   "DTHFL"    "SITEID"   "AGE"      "AGEU"    
[15] "SEX"      "RACE"     "ETHNIC"   "ARMCD"    "ARM"      "ACTARMCD" "ACTARM"  
[22] "COUNTRY"  "DMDTC"    "DMDY"     "TRT01P"   "TRT01A"   "TRTSDTM"  "TRTSTMF" 
[29] "TRTEDTM"  "TRTETMF"  "TRTSDT"   "TRTEDT"   "TRTDURD"  "SCRFDT"   "EOSDT"   
[36] "EOSSTT"   "FRVDT"    "RANDDT"   "DTHDT"    "DTHDTF"   "DTHADY"   "LDDTHELD"
[43] "DTHCAUS"  "DTHDOM"   "DTHCGR1"  "LSTALVDT" "SAFFL"    "RACEGR1"  "AGEGR1"  
[50] "REGION1"  "LDDTHGR1" "DTH30FL"  "DTHA30FL" "DTHB30FL"

   N    Y 
1188    3 

   Y 
1191 
# A tibble: 23 × 1
   AESOC                                               
   <chr>                                               
 1 GENERAL DISORDERS AND ADMINISTRATION SITE CONDITIONS
 2 GASTROINTESTINAL DISORDERS                          
 3 SKIN AND SUBCUTANEOUS TISSUE DISORDERS              
 4 CARDIAC DISORDERS                                   
 5 INFECTIONS AND INFESTATIONS                         
 6 RESPIRATORY, THORACIC AND MEDIASTINAL DISORDERS     
 7 MUSCULOSKELETAL AND CONNECTIVE TISSUE DISORDERS     
 8 RENAL AND URINARY DISORDERS                         
 9 EYE DISORDERS                                       
10 METABOLISM AND NUTRITION DISORDERS                  
# ℹ 13 more rows
# ℹ Use `print(n = ...)` to see more rows
# A tibble: 1,191 × 109
   STUDYID.x  DOMAIN USUBJID AESEQ AESPID AETERM AELLT AELLTCD AEDECOD AEPTCD AEHLT
   <chr>      <chr>  <chr>   <dbl> <chr>  <chr>  <chr>   <dbl> <chr>    <dbl> <chr>
 1 CDISCPILO… AE     01-701…     1 E07    APPLI… APPL…      NA APPLIC…     NA HLT_…
 2 CDISCPILO… AE     01-701…     2 E08    APPLI… APPL…      NA APPLIC…     NA HLT_…
 3 CDISCPILO… AE     01-701…     3 E06    DIARR… DIAR…      NA DIARRH…     NA HLT_…
 4 CDISCPILO… AE     01-701…     2 E09    ERYTH… LOCA…      NA ERYTHE…     NA HLT_…
 5 CDISCPILO… AE     01-701…     1 E08    ERYTH… ERYT…      NA ERYTHE…     NA HLT_…
 6 CDISCPILO… AE     01-701…     4 E08    ERYTH… ERYT…      NA ERYTHE…     NA HLT_…
 7 CDISCPILO… AE     01-701…     3 E10    ATRIO… AV B…      NA ATRIOV…     NA HLT_…
 8 CDISCPILO… AE     01-701…     1 E04    APPLI… APPL…      NA APPLIC…     NA HLT_…
 9 CDISCPILO… AE     01-701…     2 E05    APPLI… APPL…      NA APPLIC…     NA HLT_…
10 CDISCPILO… AE     01-701…     1 E08    APPLI… APPL…      NA APPLIC…     NA HLT_…
# ℹ 1,181 more rows
# ℹ 98 more variables: AEHLTCD <dbl>, AEHLGT <chr>, AEHLGTCD <dbl>,
#   AEBODSYS <chr>, AEBDSYCD <dbl>, AESOC <chr>, AESOCCD <dbl>, AESEV <chr>,
#   AESER <chr>, AEACN <chr>, AEREL <chr>, AEOUT <chr>, AESCAN <chr>,
#   AESCONG <chr>, AESDISAB <chr>, AESDTH <chr>, AESHOSP <chr>, AESLIFE <chr>,
#   AESOD <chr>, AEDTC <chr>, AESTDTC <chr>, AEENDTC <chr>, AESTDY <dbl>,
#   AEENDY <dbl>, TRTSDT <date>, TRTEDT <date>, DTHDT <date>, EOSDT <date>, …
# ℹ Use `print(n = ...)` to see more rows
# A tibble: 306 × 54
   STUDYID USUBJID SUBJID RFSTDTC RFENDTC RFXSTDTC RFXENDTC RFICDTC RFPENDTC DTHDTC
   <chr>   <chr>   <chr>  <chr>   <chr>   <chr>    <chr>    <chr>   <chr>    <chr> 
 1 CDISCP… 01-701… 1015   2014-0… 2014-0… 2014-01… 2014-07… <NA>    2014-07… <NA>  
 2 CDISCP… 01-701… 1023   2012-0… 2012-0… 2012-08… 2012-09… <NA>    2013-02… <NA>  
 3 CDISCP… 01-701… 1028   2013-0… 2014-0… 2013-07… 2014-01… <NA>    2014-01… <NA>  
 4 CDISCP… 01-701… 1033   2014-0… 2014-0… 2014-03… 2014-03… <NA>    2014-09… <NA>  
 5 CDISCP… 01-701… 1034   2014-0… 2014-1… 2014-07… 2014-12… <NA>    2014-12… <NA>  
 6 CDISCP… 01-701… 1047   2013-0… 2013-0… 2013-02… 2013-03… <NA>    2013-07… <NA>  
 7 CDISCP… 01-701… 1057   <NA>    <NA>    <NA>     <NA>     <NA>    2013-12… <NA>  
 8 CDISCP… 01-701… 1097   2014-0… 2014-0… 2014-01… 2014-07… <NA>    2014-07… <NA>  
 9 CDISCP… 01-701… 1111   2012-0… 2012-0… 2012-09… 2012-09… <NA>    2013-02… <NA>  
10 CDISCP… 01-701… 1115   2012-1… 2013-0… 2012-11… 2013-01… <NA>    2013-05… <NA>  
# ℹ 296 more rows
# ℹ 44 more variables: DTHFL <chr>, SITEID <chr>, AGE <dbl>, AGEU <chr>,
#   SEX <chr>, RACE <chr>, ETHNIC <chr>, ARMCD <chr>, ARM <chr>, ACTARMCD <chr>,
#   ACTARM <chr>, COUNTRY <chr>, DMDTC <chr>, DMDY <dbl>, TRT01P <chr>,
#   TRT01A <chr>, TRTSDTM <dttm>, TRTSTMF <chr>, TRTEDTM <dttm>, TRTETMF <chr>,
#   TRTSDT <date>, TRTEDT <date>, TRTDURD <dbl>, SCRFDT <date>, EOSDT <date>,
#   EOSSTT <chr>, FRVDT <date>, RANDDT <date>, DTHDT <date>, DTHDTF <chr>, …
# ℹ Use `print(n = ...)` to see more rows
# A tibble: 582 × 3
   USUBJID     AESOC                                                ACTARM         
   <chr>       <chr>                                                <chr>          
 1 01-701-1015 GENERAL DISORDERS AND ADMINISTRATION SITE CONDITIONS Placebo        
 2 01-701-1015 GASTROINTESTINAL DISORDERS                           Placebo        
 3 01-701-1023 SKIN AND SUBCUTANEOUS TISSUE DISORDERS               Placebo        
 4 01-701-1023 CARDIAC DISORDERS                                    Placebo        
 5 01-701-1028 GENERAL DISORDERS AND ADMINISTRATION SITE CONDITIONS Xanomeline Hig…
 6 01-701-1034 GENERAL DISORDERS AND ADMINISTRATION SITE CONDITIONS Xanomeline Hig…
 7 01-701-1047 GASTROINTESTINAL DISORDERS                           Placebo        
 8 01-701-1047 INFECTIONS AND INFESTATIONS                          Placebo        
 9 01-701-1047 CARDIAC DISORDERS                                    Placebo        
10 01-701-1097 SKIN AND SUBCUTANEOUS TISSUE DISORDERS               Xanomeline Low…
# ℹ 572 more rows
# ℹ Use `print(n = ...)` to see more rows
 [1] 1123 1124 1125 1126 1127 1128 1129 1130 1131 1132 1133 1134 1135 1136 1137 1138
[17] 1139 1140 1141 1142 1143 1144 1145 1146 1147 1148 1149 1150 1151 1152 1153 1154
[33] 1155 1156 1157 1158 1159 1160 1161 1162 1163 1164 1165 1166 1167 1168 1169 1170
[49] 1171 1172 1173 1174 1175 1176 1177 1178 1179 1180 1181 1182 1183 1184 1185 1186
[65] 1187 1188 1189 1190 1191
# A tibble: 4 × 2
  ACTARM                   N
  <chr>                <int>
1 Placebo                 86
2 Screen Failure          52
3 Xanomeline High Dose    72
4 Xanomeline Low Dose     96
[1] 306
[1] 306
# A tibble: 4 × 2
  ACTARM                   N
  <chr>                <int>
1 Placebo                 86
2 Screen Failure          52
3 Xanomeline High Dose    72
4 Xanomeline Low Dose     96
[1] 306
# A tibble: 822 × 4
   USUBJID     ACTARM               AESOC                                     AETERM
   <chr>       <chr>                <chr>                                     <chr> 
 1 01-701-1015 Placebo              GENERAL DISORDERS AND ADMINISTRATION SIT… APPLI…
 2 01-701-1015 Placebo              GENERAL DISORDERS AND ADMINISTRATION SIT… APPLI…
 3 01-701-1015 Placebo              GASTROINTESTINAL DISORDERS                DIARR…
 4 01-701-1023 Placebo              SKIN AND SUBCUTANEOUS TISSUE DISORDERS    ERYTH…
 5 01-701-1023 Placebo              CARDIAC DISORDERS                         ATRIO…
 6 01-701-1028 Xanomeline High Dose GENERAL DISORDERS AND ADMINISTRATION SIT… APPLI…
 7 01-701-1028 Xanomeline High Dose GENERAL DISORDERS AND ADMINISTRATION SIT… APPLI…
 8 01-701-1034 Xanomeline High Dose GENERAL DISORDERS AND ADMINISTRATION SIT… APPLI…
 9 01-701-1034 Xanomeline High Dose GENERAL DISORDERS AND ADMINISTRATION SIT… FATIG…
10 01-701-1047 Placebo              GASTROINTESTINAL DISORDERS                HIATU…
# ℹ 812 more rows
# ℹ Use `print(n = ...)` to see more rows
# A tibble: 822 × 4
   USUBJID     ACTARM               AESOC                                     AETERM
   <chr>       <chr>                <chr>                                     <chr> 
 1 01-701-1015 Placebo              GENERAL DISORDERS AND ADMINISTRATION SIT… APPLI…
 2 01-701-1015 Placebo              GENERAL DISORDERS AND ADMINISTRATION SIT… APPLI…
 3 01-701-1015 Placebo              GASTROINTESTINAL DISORDERS                DIARR…
 4 01-701-1023 Placebo              SKIN AND SUBCUTANEOUS TISSUE DISORDERS    ERYTH…
 5 01-701-1023 Placebo              CARDIAC DISORDERS                         ATRIO…
 6 01-701-1028 Xanomeline High Dose GENERAL DISORDERS AND ADMINISTRATION SIT… APPLI…
 7 01-701-1028 Xanomeline High Dose GENERAL DISORDERS AND ADMINISTRATION SIT… APPLI…
 8 01-701-1034 Xanomeline High Dose GENERAL DISORDERS AND ADMINISTRATION SIT… APPLI…
 9 01-701-1034 Xanomeline High Dose GENERAL DISORDERS AND ADMINISTRATION SIT… FATIG…
10 01-701-1047 Placebo              GASTROINTESTINAL DISORDERS                HIATU…
# ℹ 812 more rows
# ℹ Use `print(n = ...)` to see more rows
# A tibble: 582 × 2
   USUBJID     AESOC                                               
   <chr>       <chr>                                               
 1 01-701-1015 GENERAL DISORDERS AND ADMINISTRATION SITE CONDITIONS
 2 01-701-1015 GASTROINTESTINAL DISORDERS                          
 3 01-701-1023 SKIN AND SUBCUTANEOUS TISSUE DISORDERS              
 4 01-701-1023 CARDIAC DISORDERS                                   
 5 01-701-1028 GENERAL DISORDERS AND ADMINISTRATION SITE CONDITIONS
 6 01-701-1034 GENERAL DISORDERS AND ADMINISTRATION SITE CONDITIONS
 7 01-701-1047 GASTROINTESTINAL DISORDERS                          
 8 01-701-1047 INFECTIONS AND INFESTATIONS                         
 9 01-701-1047 CARDIAC DISORDERS                                   
10 01-701-1097 SKIN AND SUBCUTANEOUS TISSUE DISORDERS              
# ℹ 572 more rows
# ℹ Use `print(n = ...)` to see more rows
# A tibble: 23 × 2
   AESOC                                                n_total
   <chr>                                                  <int>
 1 CARDIAC DISORDERS                                         44
 2 CONGENITAL, FAMILIAL AND GENETIC DISORDERS                 3
 3 EAR AND LABYRINTH DISORDERS                                4
 4 EYE DISORDERS                                              7
 5 GASTROINTESTINAL DISORDERS                                53
 6 GENERAL DISORDERS AND ADMINISTRATION SITE CONDITIONS     108
 7 HEPATOBILIARY DISORDERS                                    1
 8 IMMUNE SYSTEM DISORDERS                                    2
 9 INFECTIONS AND INFESTATIONS                               39
10 INJURY, POISONING AND PROCEDURAL COMPLICATIONS            14
# ℹ 13 more rows
# ℹ Use `print(n = ...)` to see more rows
# A tibble: 23 × 2
   AESOC                                                n_total
   <chr>                                                  <int>
 1 GENERAL DISORDERS AND ADMINISTRATION SITE CONDITIONS     108
 2 SKIN AND SUBCUTANEOUS TISSUE DISORDERS                   105
 3 NERVOUS SYSTEM DISORDERS                                  59
 4 GASTROINTESTINAL DISORDERS                                53
 5 CARDIAC DISORDERS                                         44
 6 INFECTIONS AND INFESTATIONS                               39
 7 RESPIRATORY, THORACIC AND MEDIASTINAL DISORDERS           30
 8 PSYCHIATRIC DISORDERS                                     29
 9 INVESTIGATIONS                                            23
10 MUSCULOSKELETAL AND CONNECTIVE TISSUE DISORDERS           20
# ℹ 13 more rows
# ℹ Use `print(n = ...)` to see more rows
 [1] "GENERAL DISORDERS AND ADMINISTRATION SITE CONDITIONS"               
 [2] "SKIN AND SUBCUTANEOUS TISSUE DISORDERS"                             
 [3] "NERVOUS SYSTEM DISORDERS"                                           
 [4] "GASTROINTESTINAL DISORDERS"                                         
 [5] "CARDIAC DISORDERS"                                                  
 [6] "INFECTIONS AND INFESTATIONS"                                        
 [7] "RESPIRATORY, THORACIC AND MEDIASTINAL DISORDERS"                    
 [8] "PSYCHIATRIC DISORDERS"                                              
 [9] "INVESTIGATIONS"                                                     
[10] "MUSCULOSKELETAL AND CONNECTIVE TISSUE DISORDERS"                    
[11] "INJURY, POISONING AND PROCEDURAL COMPLICATIONS"                     
[12] "RENAL AND URINARY DISORDERS"                                        
[13] "METABOLISM AND NUTRITION DISORDERS"                                 
[14] "VASCULAR DISORDERS"                                                 
[15] "EYE DISORDERS"                                                      
[16] "SURGICAL AND MEDICAL PROCEDURES"                                    
[17] "EAR AND LABYRINTH DISORDERS"                                        
[18] "CONGENITAL, FAMILIAL AND GENETIC DISORDERS"                         
[19] "NEOPLASMS BENIGN, MALIGNANT AND UNSPECIFIED (INCL CYSTS AND POLYPS)"
[20] "REPRODUCTIVE SYSTEM AND BREAST DISORDERS"                           
[21] "IMMUNE SYSTEM DISORDERS"                                            
[22] "HEPATOBILIARY DISORDERS"                                            
[23] "SOCIAL CIRCUMSTANCES"                                               
attr(,"label")
[1] "Primary System Organ Class"
 [1] "GENERAL DISORDERS AND ADMINISTRATION SITE CONDITIONS"               
 [2] "SKIN AND SUBCUTANEOUS TISSUE DISORDERS"                             
 [3] "NERVOUS SYSTEM DISORDERS"                                           
 [4] "GASTROINTESTINAL DISORDERS"                                         
 [5] "CARDIAC DISORDERS"                                                  
 [6] "INFECTIONS AND INFESTATIONS"                                        
 [7] "RESPIRATORY, THORACIC AND MEDIASTINAL DISORDERS"                    
 [8] "PSYCHIATRIC DISORDERS"                                              
 [9] "INVESTIGATIONS"                                                     
[10] "MUSCULOSKELETAL AND CONNECTIVE TISSUE DISORDERS"                    
[11] "INJURY, POISONING AND PROCEDURAL COMPLICATIONS"                     
[12] "RENAL AND URINARY DISORDERS"                                        
[13] "METABOLISM AND NUTRITION DISORDERS"                                 
[14] "VASCULAR DISORDERS"                                                 
[15] "EYE DISORDERS"                                                      
[16] "SURGICAL AND MEDICAL PROCEDURES"                                    
[17] "EAR AND LABYRINTH DISORDERS"                                        
[18] "CONGENITAL, FAMILIAL AND GENETIC DISORDERS"                         
[19] "NEOPLASMS BENIGN, MALIGNANT AND UNSPECIFIED (INCL CYSTS AND POLYPS)"
[20] "REPRODUCTIVE SYSTEM AND BREAST DISORDERS"                           
[21] "IMMUNE SYSTEM DISORDERS"                                            
[22] "HEPATOBILIARY DISORDERS"                                            
[23] "SOCIAL CIRCUMSTANCES"                                               
attr(,"label")
[1] "Primary System Organ Class"
# A tibble: 822 × 5
   USUBJID     ACTARM               AESOC                               AETERM  flag
   <chr>       <chr>                <fct>                               <chr>  <dbl>
 1 01-701-1015 Placebo              GENERAL DISORDERS AND ADMINISTRATI… APPLI…     1
 2 01-701-1015 Placebo              GENERAL DISORDERS AND ADMINISTRATI… APPLI…     1
 3 01-701-1015 Placebo              GASTROINTESTINAL DISORDERS          DIARR…     1
 4 01-701-1023 Placebo              SKIN AND SUBCUTANEOUS TISSUE DISOR… ERYTH…     1
 5 01-701-1023 Placebo              CARDIAC DISORDERS                   ATRIO…     1
 6 01-701-1028 Xanomeline High Dose GENERAL DISORDERS AND ADMINISTRATI… APPLI…     1
 7 01-701-1028 Xanomeline High Dose GENERAL DISORDERS AND ADMINISTRATI… APPLI…     1
 8 01-701-1034 Xanomeline High Dose GENERAL DISORDERS AND ADMINISTRATI… APPLI…     1
 9 01-701-1034 Xanomeline High Dose GENERAL DISORDERS AND ADMINISTRATI… FATIG…     1
10 01-701-1047 Placebo              GASTROINTESTINAL DISORDERS          HIATU…     1
# ℹ 812 more rows
# ℹ Use `print(n = ...)` to see more rows
# A tibble: 225 × 25
   USUBJID     ACTARM               GENERAL DISORDERS AND A…¹ GASTROINTESTINAL DIS…²
   <chr>       <chr>                <list>                    <list>                
 1 01-701-1015 Placebo              <dbl [2]>                 <dbl [1]>             
 2 01-701-1023 Placebo              <NULL>                    <NULL>                
 3 01-701-1028 Xanomeline High Dose <dbl [2]>                 <NULL>                
 4 01-701-1034 Xanomeline High Dose <dbl [2]>                 <NULL>                
 5 01-701-1047 Placebo              <NULL>                    <dbl [1]>             
 6 01-701-1097 Xanomeline Low Dose  <dbl [2]>                 <NULL>                
 7 01-701-1111 Xanomeline Low Dose  <NULL>                    <NULL>                
 8 01-701-1115 Xanomeline Low Dose  <dbl [5]>                 <NULL>                
 9 01-701-1130 Placebo              <dbl [1]>                 <NULL>                
10 01-701-1133 Xanomeline High Dose <dbl [2]>                 <NULL>                
# ℹ 215 more rows
# ℹ abbreviated names: ¹​`GENERAL DISORDERS AND ADMINISTRATION SITE CONDITIONS`,
#   ²​`GASTROINTESTINAL DISORDERS`
# ℹ 21 more variables: `SKIN AND SUBCUTANEOUS TISSUE DISORDERS` <list>,
#   `CARDIAC DISORDERS` <list>, `INFECTIONS AND INFESTATIONS` <list>,
#   `RESPIRATORY, THORACIC AND MEDIASTINAL DISORDERS` <list>,
#   `MUSCULOSKELETAL AND CONNECTIVE TISSUE DISORDERS` <list>, …
# ℹ Use `print(n = ...)` to see more rows
# A tibble: 306 × 3
   USUBJID     ACTARM               any_teae
   <chr>       <chr>                   <dbl>
 1 01-701-1015 Placebo                     1
 2 01-701-1023 Placebo                     1
 3 01-701-1028 Xanomeline High Dose        1
 4 01-701-1033 Xanomeline Low Dose        NA
 5 01-701-1034 Xanomeline High Dose        1
 6 01-701-1047 Placebo                     1
 7 01-701-1057 Screen Failure             NA
 8 01-701-1097 Xanomeline Low Dose         1
 9 01-701-1111 Xanomeline Low Dose         1
10 01-701-1115 Xanomeline Low Dose         1
# ℹ 296 more rows
# ℹ Use `print(n = ...)` to see more rows

             Placebo Xanomeline High Dose 
                  86                   72 
 Xanomeline Low Dose 
                  96 

  0   1 
 29 225 
# A tibble: 306 × 3
   USUBJID     ACTARM               any_teae
   <chr>       <chr>                   <dbl>
 1 01-701-1015 Placebo                     1
 2 01-701-1023 Placebo                     1
 3 01-701-1028 Xanomeline High Dose        1
 4 01-701-1033 Xanomeline Low Dose        NA
 5 01-701-1034 Xanomeline High Dose        1
 6 01-701-1047 Placebo                     1
 7 01-701-1057 Screen Failure             NA
 8 01-701-1097 Xanomeline Low Dose         1
 9 01-701-1111 Xanomeline Low Dose         1
10 01-701-1115 Xanomeline Low Dose         1
# ℹ 296 more rows
# ℹ Use `print(n = ...)` to see more rows
# A tibble: 225 × 3
   USUBJID     ACTARM               any_teae
   <chr>       <chr>                   <dbl>
 1 01-701-1015 Placebo                     1
 2 01-701-1023 Placebo                     1
 3 01-701-1028 Xanomeline High Dose        1
 4 01-701-1034 Xanomeline High Dose        1
 5 01-701-1047 Placebo                     1
 6 01-701-1097 Xanomeline Low Dose         1
 7 01-701-1111 Xanomeline Low Dose         1
 8 01-701-1115 Xanomeline Low Dose         1
 9 01-701-1130 Placebo                     1
10 01-701-1133 Xanomeline High Dose        1
# ℹ 215 more rows
# ℹ Use `print(n = ...)` to see more rows
# A tibble: 822 × 4
   USUBJID     ACTARM               AESOC    AETERM
   <chr>       <chr>                <chr>    <chr> 
 1 01-701-1015 Placebo              GENERAL… APPLI…
 2 01-701-1015 Placebo              GENERAL… APPLI…
 3 01-701-1015 Placebo              GASTROI… DIARR…
 4 01-701-1023 Placebo              SKIN AN… ERYTH…
 5 01-701-1023 Placebo              CARDIAC… ATRIO…
 6 01-701-1028 Xanomeline High Dose GENERAL… APPLI…
 7 01-701-1028 Xanomeline High Dose GENERAL… APPLI…
 8 01-701-1034 Xanomeline High Dose GENERAL… APPLI…
 9 01-701-1034 Xanomeline High Dose GENERAL… FATIG…
10 01-701-1047 Placebo              GASTROI… HIATU…
# ℹ 812 more rows
# ℹ Use `print(n = ...)` to see more rows
# A tibble: 822 × 4
   USUBJID     ACTARM               AESOC    AETERM
   <chr>       <chr>                <chr>    <chr> 
 1 01-701-1015 Placebo              GENERAL… APPLI…
 2 01-701-1015 Placebo              GENERAL… APPLI…
 3 01-701-1015 Placebo              GASTROI… DIARR…
 4 01-701-1023 Placebo              SKIN AN… ERYTH…
 5 01-701-1023 Placebo              CARDIAC… ATRIO…
 6 01-701-1028 Xanomeline High Dose GENERAL… APPLI…
 7 01-701-1028 Xanomeline High Dose GENERAL… APPLI…
 8 01-701-1034 Xanomeline High Dose GENERAL… APPLI…
 9 01-701-1034 Xanomeline High Dose GENERAL… FATIG…
10 01-701-1047 Placebo              GASTROI… HIATU…
# ℹ 812 more rows
# ℹ Use `print(n = ...)` to see more rows
# A tibble: 582 × 3
   USUBJID     ACTARM               AESOC          
   <chr>       <chr>                <chr>          
 1 01-701-1015 Placebo              GENERAL DISORD…
 2 01-701-1015 Placebo              GASTROINTESTIN…
 3 01-701-1023 Placebo              SKIN AND SUBCU…
 4 01-701-1023 Placebo              CARDIAC DISORD…
 5 01-701-1028 Xanomeline High Dose GENERAL DISORD…
 6 01-701-1034 Xanomeline High Dose GENERAL DISORD…
 7 01-701-1047 Placebo              GASTROINTESTIN…
 8 01-701-1047 Placebo              INFECTIONS AND…
 9 01-701-1047 Placebo              CARDIAC DISORD…
10 01-701-1097 Xanomeline Low Dose  SKIN AND SUBCU…
# ℹ 572 more rows
# ℹ Use `print(n = ...)` to see more rows
# A tibble: 822 × 4
   USUBJID     ACTARM               AESOC    AETERM
   <chr>       <chr>                <chr>    <chr> 
 1 01-701-1015 Placebo              GENERAL… APPLI…
 2 01-701-1015 Placebo              GENERAL… APPLI…
 3 01-701-1015 Placebo              GASTROI… DIARR…
 4 01-701-1023 Placebo              SKIN AN… ERYTH…
 5 01-701-1023 Placebo              CARDIAC… ATRIO…
 6 01-701-1028 Xanomeline High Dose GENERAL… APPLI…
 7 01-701-1028 Xanomeline High Dose GENERAL… APPLI…
 8 01-701-1034 Xanomeline High Dose GENERAL… APPLI…
 9 01-701-1034 Xanomeline High Dose GENERAL… FATIG…
10 01-701-1047 Placebo              GASTROI… HIATU…
# ℹ 812 more rows
# ℹ Use `print(n = ...)` to see more rows
# A tibble: 582 × 3
   USUBJID     ACTARM               AESOC          
   <chr>       <chr>                <chr>          
 1 01-701-1015 Placebo              GENERAL DISORD…
 2 01-701-1015 Placebo              GASTROINTESTIN…
 3 01-701-1023 Placebo              SKIN AND SUBCU…
 4 01-701-1023 Placebo              CARDIAC DISORD…
 5 01-701-1028 Xanomeline High Dose GENERAL DISORD…
 6 01-701-1034 Xanomeline High Dose GENERAL DISORD…
 7 01-701-1047 Placebo              GASTROINTESTIN…
 8 01-701-1047 Placebo              INFECTIONS AND…
 9 01-701-1047 Placebo              CARDIAC DISORD…
10 01-701-1097 Xanomeline Low Dose  SKIN AND SUBCU…
# ℹ 572 more rows
# ℹ Use `print(n = ...)` to see more rows
# A tibble: 582 × 4
   USUBJID     ACTARM               AESOC      flag
   <chr>       <chr>                <fct>     <int>
 1 01-701-1015 Placebo              GENERAL …     1
 2 01-701-1015 Placebo              GASTROIN…     1
 3 01-701-1023 Placebo              SKIN AND…     1
 4 01-701-1023 Placebo              CARDIAC …     1
 5 01-701-1028 Xanomeline High Dose GENERAL …     1
 6 01-701-1034 Xanomeline High Dose GENERAL …     1
 7 01-701-1047 Placebo              GASTROIN…     1
 8 01-701-1047 Placebo              INFECTIO…     1
 9 01-701-1047 Placebo              CARDIAC …     1
10 01-701-1097 Xanomeline Low Dose  SKIN AND…     1
# ℹ 572 more rows
# ℹ Use `print(n = ...)` to see more rows
# A tibble: 582 × 4
   USUBJID     ACTARM               AESOC      flag
   <chr>       <chr>                <fct>     <dbl>
 1 01-701-1015 Placebo              GENERAL …     1
 2 01-701-1015 Placebo              GASTROIN…     1
 3 01-701-1023 Placebo              SKIN AND…     1
 4 01-701-1023 Placebo              CARDIAC …     1
 5 01-701-1028 Xanomeline High Dose GENERAL …     1
 6 01-701-1034 Xanomeline High Dose GENERAL …     1
 7 01-701-1047 Placebo              GASTROIN…     1
 8 01-701-1047 Placebo              INFECTIO…     1
 9 01-701-1047 Placebo              CARDIAC …     1
10 01-701-1097 Xanomeline Low Dose  SKIN AND…     1
# ℹ 572 more rows
# ℹ Use `print(n = ...)` to see more rows
# A tibble: 225 × 25
   USUBJID     ACTARM        GENERAL DISORDERS AN…¹
   <chr>       <chr>                          <dbl>
 1 01-701-1015 Placebo                            1
 2 01-701-1023 Placebo                            0
 3 01-701-1028 Xanomeline H…                      1
 4 01-701-1034 Xanomeline H…                      1
 5 01-701-1047 Placebo                            0
 6 01-701-1097 Xanomeline L…                      1
 7 01-701-1111 Xanomeline L…                      0
 8 01-701-1115 Xanomeline L…                      1
 9 01-701-1130 Placebo                            1
10 01-701-1133 Xanomeline H…                      1
# ℹ 215 more rows
# ℹ abbreviated name:
#   ¹​`GENERAL DISORDERS AND ADMINISTRATION SITE CONDITIONS`
# ℹ 22 more variables:
#   `GASTROINTESTINAL DISORDERS` <dbl>,
#   `SKIN AND SUBCUTANEOUS TISSUE DISORDERS` <dbl>,
#   `CARDIAC DISORDERS` <dbl>, …
# ℹ Use `print(n = ...)` to see more rows
# A tibble: 582 × 4
   USUBJID     ACTARM               AESOC                          flag
   <chr>       <chr>                <fct>                         <dbl>
 1 01-701-1015 Placebo              GENERAL DISORDERS AND ADMINI…     1
 2 01-701-1015 Placebo              GASTROINTESTINAL DISORDERS        1
 3 01-701-1023 Placebo              SKIN AND SUBCUTANEOUS TISSUE…     1
 4 01-701-1023 Placebo              CARDIAC DISORDERS                 1
 5 01-701-1028 Xanomeline High Dose GENERAL DISORDERS AND ADMINI…     1
 6 01-701-1034 Xanomeline High Dose GENERAL DISORDERS AND ADMINI…     1
 7 01-701-1047 Placebo              GASTROINTESTINAL DISORDERS        1
 8 01-701-1047 Placebo              INFECTIONS AND INFESTATIONS       1
 9 01-701-1047 Placebo              CARDIAC DISORDERS                 1
10 01-701-1097 Xanomeline Low Dose  SKIN AND SUBCUTANEOUS TISSUE…     1
# ℹ 572 more rows
# ℹ Use `print(n = ...)` to see more rows
   [1] "APPLICATION SITE ERYTHEMA"                   
   [2] "APPLICATION SITE PRURITUS"                   
   [3] "DIARRHOEA"                                   
   [4] "ERYTHEMA"                                    
   [5] "ERYTHEMA"                                    
   [6] "ERYTHEMA"                                    
   [7] "ATRIOVENTRICULAR BLOCK SECOND DEGREE"        
   [8] "APPLICATION SITE ERYTHEMA"                   
   [9] "APPLICATION SITE PRURITUS"                   
  [10] "APPLICATION SITE PRURITUS"                   
  [11] "FATIGUE"                                     
  [12] "HIATUS HERNIA"                               
  [13] "HIATUS HERNIA"                               
  [14] "UPPER RESPIRATORY TRACT INFECTION"           
  [15] "BUNDLE BRANCH BLOCK LEFT"                    
  [16] "PRURITUS GENERALISED"                        
  [17] "APPLICATION SITE PRURITUS"                   
  [18] "PRURITUS GENERALISED"                        
  [19] "PRURITUS GENERALISED"                        
  [20] "PRURITUS GENERALISED"                        
  [21] "ERYTHEMA"                                    
  [22] "APPLICATION SITE VESICLES"                   
  [23] "APPLICATION SITE PRURITUS"                   
  [24] "PHARYNGOLARYNGEAL PAIN"                      
  [25] "NASAL CONGESTION"                            
  [26] "ARTHRALGIA"                                  
  [27] "CELLULITIS"                                  
  [28] "MICTURITION URGENCY"                         
  [29] "APPLICATION SITE ERYTHEMA"                   
  [30] "APPLICATION SITE PRURITUS"                   
  [31] "FATIGUE"                                     
  [32] "APPLICATION SITE IRRITATION"                 
  [33] "APPLICATION SITE DERMATITIS"                 
  [34] "APPLICATION SITE ERYTHEMA"                   
  [35] "APPLICATION SITE PRURITUS"                   
  [36] "APPLICATION SITE IRRITATION"                 
  [37] "APPLICATION SITE IRRITATION"                 
  [38] "URINARY TRACT INFECTION"                     
  [39] "PYREXIA"                                     
  [40] "URINARY TRACT INFECTION"                     
  [41] "EYE SWELLING"                                
  [42] "EYE ALLERGY"                                 
  [43] "EYE PRURITUS"                                
  [44] "PRURITUS"                                    
  [45] "NASAL CONGESTION"                            
  [46] "APPLICATION SITE ERYTHEMA"                   
  [47] "APPLICATION SITE PRURITUS"                   
  [48] "APPLICATION SITE ERYTHEMA"                   
  [49] "APPLICATION SITE PRURITUS"                   
  [50] "APPLICATION SITE ERYTHEMA"                   
  [51] "APPLICATION SITE PRURITUS"                   
  [52] "APPLICATION SITE PAIN"                       
  [53] "APPLICATION SITE VESICLES"                   
  [54] "APPLICATION SITE IRRITATION"                 
  [55] "APPLICATION SITE IRRITATION"                 
  [56] "FATIGUE"                                     
  [57] "APPLICATION SITE ERYTHEMA"                   
  [58] "APPLICATION SITE PRURITUS"                   
  [59] "LOWER RESPIRATORY TRACT INFECTION"           
  [60] "LOWER RESPIRATORY TRACT INFECTION"           
  [61] "FLANK PAIN"                                  
  [62] "CALCULUS URETHRAL"                           
  [63] "APPLICATION SITE ERYTHEMA"                   
  [64] "APPLICATION SITE PRURITUS"                   
  [65] "EPISTAXIS"                                   
  [66] "ACTINIC KERATOSIS"                           
  [67] "INCREASED APPETITE"                          
  [68] "INCREASED APPETITE"                          
  [69] "APPLICATION SITE VESICLES"                   
  [70] "APPLICATION SITE PRURITUS"                   
  [71] "APPLICATION SITE ERYTHEMA"                   
  [72] "VOMITING"                                    
  [73] "VOMITING"                                    
  [74] "MICTURITION URGENCY"                         
  [75] "MICTURITION URGENCY"                         
  [76] "NASOPHARYNGITIS"                             
  [77] "AGITATION"                                   
  [78] "ERYTHEMA"                                    
  [79] "PRURITUS"                                    
  [80] "URTICARIA"                                   
  [81] "ERYTHEMA"                                    
  [82] "PRURITUS"                                    
  [83] "URTICARIA"                                   
  [84] "APPLICATION SITE URTICARIA"                  
  [85] "URTICARIA"                                   
  [86] "PNEUMONIA"                                   
  [87] "MUSCULAR WEAKNESS"                           
  [88] "PNEUMONIA"                                   
  [89] "MUSCULAR WEAKNESS"                           
  [90] "NASAL MUCOSA BIOPSY"                         
  [91] "SECRETION DISCHARGE"                         
  [92] "ERYTHEMA"                                    
  [93] "SECRETION DISCHARGE"                         
  [94] "ERYTHEMA"                                    
  [95] "APPLICATION SITE IRRITATION"                 
  [96] "APPLICATION SITE ERYTHEMA"                   
  [97] "APPLICATION SITE PRURITUS"                   
  [98] "APPLICATION SITE IRRITATION"                 
  [99] "EYE LASER SURGERY"                           
 [100] "SUDDEN DEATH"                                
 [101] "JOINT DISLOCATION"                           
 [102] "CONFUSIONAL STATE"                           
 [103] "DYSPNOEA"                                    
 [104] "APPLICATION SITE PRURITUS"                   
 [105] "SHOULDER PAIN"                               
 [106] "INCONTINENCE"                                
 [107] "APPLICATION SITE ERYTHEMA"                   
 [108] "SKIN LACERATION"                             
 [109] "ERYTHEMA"                                    
 [110] "ERYTHEMA"                                    
 [111] "SKIN ODOUR ABNORMAL"                         
 [112] "PRURITUS"                                    
 [113] "APPLICATION SITE IRRITATION"                 
 [114] "APPLICATION SITE IRRITATION"                 
 [115] "UPPER RESPIRATORY TRACT INFECTION"           
 [116] "UPPER RESPIRATORY TRACT INFECTION"           
 [117] "FATIGUE"                                     
 [118] "HORDEOLUM"                                   
 [119] "NAUSEA"                                      
 [120] "NAUSEA"                                      
 [121] "VOMITING"                                    
 [122] "ERYTHEMA"                                    
 [123] "SALIVARY HYPERSECRETION"                     
 [124] "PAROSMIA"                                    
 [125] "PRURITUS"                                    
 [126] "ERYTHEMA"                                    
 [127] "SALIVARY HYPERSECRETION"                     
 [128] "PAROSMIA"                                    
 [129] "PRURITUS"                                    
 [130] "COUGH"                                       
 [131] "NASAL CONGESTION"                            
 [132] "COUGH"                                       
 [133] "NASAL CONGESTION"                            
 [134] "SALIVARY HYPERSECRETION"                     
 [135] "APPLICATION SITE PRURITUS"                   
 [136] "APPLICATION SITE ERYTHEMA"                   
 [137] "RHINORRHOEA"                                 
 [138] "RHINORRHOEA"                                 
 [139] "APPLICATION SITE PRURITUS"                   
 [140] "APPLICATION SITE ERYTHEMA"                   
 [141] "RASH ERYTHEMATOUS"                           
 [142] "APPLICATION SITE PRURITUS"                   
 [143] "APPLICATION SITE ERYTHEMA"                   
 [144] "DIZZINESS"                                   
 [145] "MALAISE"                                     
 [146] "APPLICATION SITE PERSPIRATION"               
 [147] "HYPERHIDROSIS"                               
 [148] "STOMACH DISCOMFORT"                          
 [149] "PAIN"                                        
 [150] "NASAL CONGESTION"                            
 [151] "PHARYNGOLARYNGEAL PAIN"                      
 [152] "PRODUCTIVE COUGH"                            
 [153] "MALAISE"                                     
 [154] "MYALGIA"                                     
 [155] "DIZZINESS"                                   
 [156] "CONTUSION"                                   
 [157] "CONTUSION"                                   
 [158] "HEADACHE"                                    
 [159] "EPISTAXIS"                                   
 [160] "APPLICATION SITE ERYTHEMA"                   
 [161] "APPLICATION SITE PRURITUS"                   
 [162] "RESPIRATORY TRACT CONGESTION"                
 [163] "RHINITIS"                                    
 [164] "FEELING ABNORMAL"                            
 [165] "LISTLESS"                                    
 [166] "LIBIDO DECREASED"                            
 [167] "DEPRESSED MOOD"                              
 [168] "APPLICATION SITE ERYTHEMA"                   
 [169] "APPLICATION SITE PRURITUS"                   
 [170] "APPLICATION SITE URTICARIA"                  
 [171] "DEPRESSED MOOD"                              
 [172] "FATIGUE"                                     
 [173] "DYSPHONIA"                                   
 [174] "APPLICATION SITE ERYTHEMA"                   
 [175] "APPLICATION SITE PRURITUS"                   
 [176] "APPLICATION SITE VESICLES"                   
 [177] "APPLICATION SITE VESICLES"                   
 [178] "APPLICATION SITE PRURITUS"                   
 [179] "APPLICATION SITE ERYTHEMA"                   
 [180] "APPLICATION SITE PRURITUS"                   
 [181] "APPLICATION SITE ERYTHEMA"                   
 [182] "APPLICATION SITE IRRITATION"                 
 [183] "APPLICATION SITE ERYTHEMA"                   
 [184] "APPLICATION SITE PRURITUS"                   
 [185] "APPLICATION SITE VESICLES"                   
 [186] "NAUSEA"                                      
 [187] "APPLICATION SITE PRURITUS"                   
 [188] "BACK PAIN"                                   
 [189] "BACK PAIN"                                   
 [190] "APPLICATION SITE PRURITUS"                   
 [191] "APPLICATION SITE IRRITATION"                 
 [192] "COUGH"                                       
 [193] "APPLICATION SITE PRURITUS"                   
 [194] "APPLICATION SITE PAIN"                       
 [195] "APPLICATION SITE ERYTHEMA"                   
 [196] "APPLICATION SITE PRURITUS"                   
 [197] "APPLICATION SITE ERYTHEMA"                   
 [198] "APPLICATION SITE IRRITATION"                 
 [199] "APPLICATION SITE VESICLES"                   
 [200] "CHEST DISCOMFORT"                            
 [201] "HEADACHE"                                    
 [202] "DIARRHOEA"                                   
 [203] "HYPERHIDROSIS"                               
 [204] "UPPER RESPIRATORY TRACT INFECTION"           
 [205] "UPPER RESPIRATORY TRACT INFECTION"           
 [206] "UPPER RESPIRATORY TRACT INFECTION"           
 [207] "UPPER RESPIRATORY TRACT INFECTION"           
 [208] "MICTURITION URGENCY"                         
 [209] "UPPER RESPIRATORY TRACT INFECTION"           
 [210] "UPPER RESPIRATORY TRACT INFECTION"           
 [211] "DIARRHOEA"                                   
 [212] "APPLICATION SITE PRURITUS"                   
 [213] "APPLICATION SITE ERYTHEMA"                   
 [214] "APPLICATION SITE PRURITUS"                   
 [215] "APPLICATION SITE IRRITATION"                 
 [216] "APPLICATION SITE VESICLES"                   
 [217] "APPLICATION SITE ERYTHEMA"                   
 [218] "APPLICATION SITE PRURITUS"                   
 [219] "SALIVARY HYPERSECRETION"                     
 [220] "PARAESTHESIA"                                
 [221] "SKIN IRRITATION"                             
 [222] "RECTAL HAEMORRHAGE"                          
 [223] "RECTAL HAEMORRHAGE"                          
 [224] "APPLICATION SITE IRRITATION"                 
 [225] "DIARRHOEA"                                   
 [226] "INSOMNIA"                                    
 [227] "BIOPSY PROSTATE"                             
 [228] "BENIGN PROSTATIC HYPERPLASIA"                
 [229] "APPLICATION SITE PRURITUS"                   
 [230] "APPLICATION SITE PRURITUS"                   
 [231] "APPLICATION SITE DERMATITIS"                 
 [232] "HYPERHIDROSIS"                               
 [233] "APPLICATION SITE IRRITATION"                 
 [234] "APPLICATION SITE IRRITATION"                 
 [235] "APPLICATION SITE IRRITATION"                 
 [236] "APPLICATION SITE IRRITATION"                 
 [237] "CHILLS"                                      
 [238] "CHILLS"                                      
 [239] "APPLICATION SITE IRRITATION"                 
 [240] "CATARACT OPERATION"                          
 [241] "UPPER RESPIRATORY TRACT INFECTION"           
 [242] "APPLICATION SITE IRRITATION"                 
 [243] "APPLICATION SITE IRRITATION"                 
 [244] "OEDEMA PERIPHERAL"                           
 [245] "OEDEMA PERIPHERAL"                           
 [246] "APPLICATION SITE IRRITATION"                 
 [247] "PRURITUS"                                    
 [248] "APPLICATION SITE IRRITATION"                 
 [249] "PRURITUS"                                    
 [250] "APPLICATION SITE ERYTHEMA"                   
 [251] "SOMNOLENCE"                                  
 [252] "APPLICATION SITE ERYTHEMA"                   
 [253] "SOMNOLENCE"                                  
 [254] "DECREASED APPETITE"                          
 [255] "DISORIENTATION"                              
 [256] "DECREASED APPETITE"                          
 [257] "APPLICATION SITE DERMATITIS"                 
 [258] "UPPER RESPIRATORY TRACT INFECTION"           
 [259] "UPPER RESPIRATORY TRACT INFECTION"           
 [260] "APPLICATION SITE DERMATITIS"                 
 [261] "APPLICATION SITE DERMATITIS"                 
 [262] "ARTHRITIS"                                   
 [263] "HYPOTENSION"                                 
 [264] "TACHYCARDIA"                                 
 [265] "MYOCARDIAL INFARCTION"                       
 [266] "UPPER RESPIRATORY TRACT INFECTION"           
 [267] "UPPER RESPIRATORY TRACT INFECTION"           
 [268] "HYPOTENSION"                                 
 [269] "TACHYCARDIA"                                 
 [270] "WEIGHT DECREASED"                            
 [271] "WEIGHT DECREASED"                            
 [272] "DIARRHOEA"                                   
 [273] "VOMITING"                                    
 [274] "CHEST DISCOMFORT"                            
 [275] "APPLICATION SITE IRRITATION"                 
 [276] "APPLICATION SITE IRRITATION"                 
 [277] "TRANSIENT ISCHAEMIC ATTACK"                  
 [278] "SINUS BRADYCARDIA"                           
 [279] "HYPERHIDROSIS"                               
 [280] "FATIGUE"                                     
 [281] "MALAISE"                                     
 [282] "MALAISE"                                     
 [283] "RASH"                                        
 [284] "DIZZINESS"                                   
 [285] "NAUSEA"                                      
 [286] "CYSTITIS"                                    
 [287] "VOMITING"                                    
 [288] "DIARRHOEA"                                   
 [289] "EXCORIATION"                                 
 [290] "SKIN LACERATION"                             
 [291] "ARTHRALGIA"                                  
 [292] "CONTUSION"                                   
 [293] "MYOCARDIAL INFARCTION"                       
 [294] "VENTRICULAR SEPTAL DEFECT"                   
 [295] "INFLUENZA"                                   
 [296] "CARDIAC DISORDER"                            
 [297] "RASH"                                        
 [298] "PRURITUS"                                    
 [299] "RASH"                                        
 [300] "PRURITUS"                                    
 [301] "VERTIGO"                                     
 [302] "PALPITATIONS"                                
 [303] "ELECTROCARDIOGRAM ST SEGMENT DEPRESSION"     
 [304] "ELECTROCARDIOGRAM ST SEGMENT DEPRESSION"     
 [305] "WOLFF-PARKINSON-WHITE SYNDROME"              
 [306] "WOLFF-PARKINSON-WHITE SYNDROME"              
 [307] "APPLICATION SITE PRURITUS"                   
 [308] "ABDOMINAL DISCOMFORT"                        
 [309] "RASH"                                        
 [310] "APPLICATION SITE IRRITATION"                 
 [311] "MALAISE"                                     
 [312] "HYPERHIDROSIS"                               
 [313] "CHILLS"                                      
 [314] "DIZZINESS"                                   
 [315] "DIARRHOEA"                                   
 [316] "SINUS BRADYCARDIA"                           
 [317] "PRURITUS"                                    
 [318] "ERYTHEMA"                                    
 [319] "BLOOD GLUCOSE INCREASED"                     
 [320] "BLOOD GLUCOSE INCREASED"                     
 [321] "RASH"                                        
 [322] "PRURITUS"                                    
 [323] "ERYTHEMA"                                    
 [324] "OEDEMA"                                      
 [325] "RASH"                                        
 [326] "PRURITUS"                                    
 [327] "INFLUENZA"                                   
 [328] "RASH"                                        
 [329] "PRURITUS"                                    
 [330] "RASH"                                        
 [331] "NASOPHARYNGITIS"                             
 [332] "NASOPHARYNGITIS"                             
 [333] "PRURITUS"                                    
 [334] "RASH"                                        
 [335] "RASH"                                        
 [336] "INFLUENZA"                                   
 [337] "INFLUENZA"                                   
 [338] "OEDEMA PERIPHERAL"                           
 [339] "BLOOD GLUCOSE INCREASED"                     
 [340] "DYSPNOEA"                                    
 [341] "ERYTHEMA"                                    
 [342] "ERYTHEMA"                                    
 [343] "ERYTHEMA"                                    
 [344] "ATRIAL FLUTTER"                              
 [345] "ATRIAL FLUTTER"                              
 [346] "ATRIAL FIBRILLATION"                         
 [347] "ATRIAL FIBRILLATION"                         
 [348] "HYPERHIDROSIS"                               
 [349] "HYPERHIDROSIS"                               
 [350] "BLISTER"                                     
 [351] "PRURITUS"                                    
 [352] "BLISTER"                                     
 [353] "PRURITUS"                                    
 [354] "ERYTHEMA"                                    
 [355] "ERYTHEMA"                                    
 [356] "VIRAL INFECTION"                             
 [357] "RASH"                                        
 [358] "PRURITUS"                                    
 [359] "OEDEMA"                                      
 [360] "RASH"                                        
 [361] "PRURITUS"                                    
 [362] "RASH"                                        
 [363] "RASH"                                        
 [364] "RASH"                                        
 [365] "PRURITUS"                                    
 [366] "PRURITUS"                                    
 [367] "BURNING SENSATION"                           
 [368] "POLLAKIURIA"                                 
 [369] "FLATULENCE"                                  
 [370] "POLLAKIURIA"                                 
 [371] "FLATULENCE"                                  
 [372] "PARKINSON'S DISEASE"                         
 [373] "COMPLETED SUICIDE"                           
 [374] "RASH"                                        
 [375] "ERYTHEMA"                                    
 [376] "HYPERBILIRUBINAEMIA"                         
 [377] "DYSPEPSIA"                                   
 [378] "DYSPEPSIA"                                   
 [379] "PRURITUS"                                    
 [380] "EXCORIATION"                                 
 [381] "PRURITUS"                                    
 [382] "PRURITUS"                                    
 [383] "ERYTHEMA"                                    
 [384] "PRURITUS"                                    
 [385] "RASH PRURITIC"                               
 [386] "WOUND HAEMORRHAGE"                           
 [387] "NAUSEA"                                      
 [388] "VOMITING"                                    
 [389] "VENTRICULAR HYPERTROPHY"                     
 [390] "ELECTROCARDIOGRAM ST SEGMENT DEPRESSION"     
 [391] "COLON CANCER"                                
 [392] "ABDOMINAL PAIN"                              
 [393] "ANXIETY"                                     
 [394] "IRRITABILITY"                                
 [395] "IRRITABILITY"                                
 [396] "DIARRHOEA"                                   
 [397] "EXCORIATION"                                 
 [398] "EXCORIATION"                                 
 [399] "PRURITUS"                                    
 [400] "PRURITUS"                                    
 [401] "SYNCOPE"                                     
 [402] "SYNCOPE"                                     
 [403] "ERYTHEMA"                                    
 [404] "PRURITUS"                                    
 [405] "EXCORIATION"                                 
 [406] "ERYTHEMA"                                    
 [407] "PRURITUS"                                    
 [408] "EXCORIATION"                                 
 [409] "ERYTHEMA"                                    
 [410] "PRURITUS"                                    
 [411] "ERYTHEMA"                                    
 [412] "PRURITUS"                                    
 [413] "BLOOD CREATINE PHOSPHOKINASE INCREASED"      
 [414] "BLOOD CREATINE PHOSPHOKINASE INCREASED"      
 [415] "CONJUNCTIVITIS"                              
 [416] "CONJUNCTIVITIS"                              
 [417] "SINUS ARRHYTHMIA"                            
 [418] "SINUS ARRHYTHMIA"                            
 [419] "POSTNASAL DRIP"                              
 [420] "POSTNASAL DRIP"                              
 [421] "HEADACHE"                                    
 [422] "STUPOR"                                      
 [423] "TRANSIENT ISCHAEMIC ATTACK"                  
 [424] "VISION BLURRED"                              
 [425] "DIZZINESS"                                   
 [426] "APPLICATION SITE VESICLES"                   
 [427] "DIZZINESS"                                   
 [428] "DIZZINESS"                                   
 [429] "MYOCARDIAL INFARCTION"                       
 [430] "MYOCARDIAL INFARCTION"                       
 [431] "SINUS BRADYCARDIA"                           
 [432] "SINUS BRADYCARDIA"                           
 [433] "HEART RATE IRREGULAR"                        
 [434] "HEART RATE IRREGULAR"                        
 [435] "DIZZINESS"                                   
 [436] "HEADACHE"                                    
 [437] "HEART RATE IRREGULAR"                        
 [438] "HEART RATE IRREGULAR"                        
 [439] "AGITATION"                                   
 [440] "ERYTHEMA"                                    
 [441] "DIZZINESS"                                   
 [442] "ATRIAL FIBRILLATION"                         
 [443] "NASOPHARYNGITIS"                             
 [444] "APPLICATION SITE PRURITUS"                   
 [445] "VENTRICULAR SEPTAL DEFECT"                   
 [446] "APPLICATION SITE PRURITUS"                   
 [447] "CYSTITIS"                                    
 [448] "ALCOHOL USE"                                 
 [449] "ATRIAL FIBRILLATION"                         
 [450] "ATRIAL FIBRILLATION"                         
 [451] "APPLICATION SITE PRURITUS"                   
 [452] "APPLICATION SITE ERYTHEMA"                   
 [453] "APPLICATION SITE ERYTHEMA"                   
 [454] "APPLICATION SITE SWELLING"                   
 [455] "HEART RATE INCREASED"                        
 [456] "HEART RATE INCREASED"                        
 [457] "DIZZINESS"                                   
 [458] "DIZZINESS"                                   
 [459] "MUSCLE SPASMS"                               
 [460] "DIARRHOEA"                                   
 [461] "VENTRICULAR EXTRASYSTOLES"                   
 [462] "VENTRICULAR EXTRASYSTOLES"                   
 [463] "APPLICATION SITE DERMATITIS"                 
 [464] "COUGH"                                       
 [465] "NASOPHARYNGITIS"                             
 [466] "COUGH"                                       
 [467] "NASOPHARYNGITIS"                             
 [468] "HEADACHE"                                    
 [469] "HEADACHE"                                    
 [470] "HOT FLUSH"                                   
 [471] "APPLICATION SITE PRURITUS"                   
 [472] "MYOCARDIAL INFARCTION"                       
 [473] "ABDOMINAL PAIN"                              
 [474] "CONSTIPATION"                                
 [475] "ATRIAL HYPERTROPHY"                          
 [476] "ATRIAL HYPERTROPHY"                          
 [477] "APPLICATION SITE PRURITUS"                   
 [478] "APPLICATION SITE PRURITUS"                   
 [479] "APPLICATION SITE VESICLES"                   
 [480] "APPLICATION SITE VESICLES"                   
 [481] "PAIN IN EXTREMITY"                           
 [482] "APPLICATION SITE PRURITUS"                   
 [483] "APPLICATION SITE SWELLING"                   
 [484] "SINUS BRADYCARDIA"                           
 [485] "HEADACHE"                                    
 [486] "APPLICATION SITE ERYTHEMA"                   
 [487] "DIZZINESS"                                   
 [488] "APPLICATION SITE PRURITUS"                   
 [489] "DIZZINESS"                                   
 [490] "APPLICATION SITE PRURITUS"                   
 [491] "APPLICATION SITE ERYTHEMA"                   
 [492] "APPLICATION SITE PRURITUS"                   
 [493] "APPLICATION SITE ERYTHEMA"                   
 [494] "ERYTHEMA"                                    
 [495] "APPLICATION SITE ERYTHEMA"                   
 [496] "APPLICATION SITE SWELLING"                   
 [497] "ERYTHEMA"                                    
 [498] "APPLICATION SITE ERYTHEMA"                   
 [499] "APPLICATION SITE SWELLING"                   
 [500] "PRURITUS"                                    
 [501] "PRURITUS"                                    
 [502] "MYOCARDIAL INFARCTION"                       
 [503] "MYOCARDIAL INFARCTION"                       
 [504] "APPLICATION SITE PRURITUS"                   
 [505] "DIZZINESS"                                   
 [506] "DIZZINESS"                                   
 [507] "HYPOTENSION"                                 
 [508] "OEDEMA PERIPHERAL"                           
 [509] "OEDEMA PERIPHERAL"                           
 [510] "APPLICATION SITE PRURITUS"                   
 [511] "APPLICATION SITE ERYTHEMA"                   
 [512] "APPLICATION SITE WARMTH"                     
 [513] "APPLICATION SITE PRURITUS"                   
 [514] "APPLICATION SITE ERYTHEMA"                   
 [515] "APPLICATION SITE WARMTH"                     
 [516] "EPISTAXIS"                                   
 [517] "APPLICATION SITE DERMATITIS"                 
 [518] "APPLICATION SITE DERMATITIS"                 
 [519] "APPLICATION SITE DERMATITIS"                 
 [520] "DIARRHOEA"                                   
 [521] "APPLICATION SITE DERMATITIS"                 
 [522] "DIARRHOEA"                                   
 [523] "ABDOMINAL PAIN"                              
 [524] "APPLICATION SITE PRURITUS"                   
 [525] "MYOCARDIAL INFARCTION"                       
 [526] "MYOCARDIAL INFARCTION"                       
 [527] "APPLICATION SITE ERYTHEMA"                   
 [528] "MUSCLE SPASMS"                               
 [529] "MUSCLE SPASMS"                               
 [530] "MYOCARDIAL INFARCTION"                       
 [531] "SINUS BRADYCARDIA"                           
 [532] "MYOCARDIAL INFARCTION"                       
 [533] "SINUS BRADYCARDIA"                           
 [534] "COUGH"                                       
 [535] "PHARYNGEAL ERYTHEMA"                         
 [536] "COUGH"                                       
 [537] "PHARYNGEAL ERYTHEMA"                         
 [538] "MYOCARDIAL INFARCTION"                       
 [539] "SINUS BRADYCARDIA"                           
 [540] "PRURITUS"                                    
 [541] "RASH"                                        
 [542] "OEDEMA PERIPHERAL"                           
 [543] "APPLICATION SITE DERMATITIS"                 
 [544] "RASH"                                        
 [545] "APPLICATION SITE DERMATITIS"                 
 [546] "APPLICATION SITE PRURITUS"                   
 [547] "NASOPHARYNGITIS"                             
 [548] "NASOPHARYNGITIS"                             
 [549] "APPLICATION SITE DERMATITIS"                 
 [550] "APPLICATION SITE VESICLES"                   
 [551] "APPLICATION SITE PRURITUS"                   
 [552] "ACROCHORDON EXCISION"                        
 [553] "APPLICATION SITE DERMATITIS"                 
 [554] "APPLICATION SITE PRURITUS"                   
 [555] "APPLICATION SITE DERMATITIS"                 
 [556] "APPLICATION SITE PRURITUS"                   
 [557] "DIZZINESS"                                   
 [558] "APPLICATION SITE VESICLES"                   
 [559] "PRURITUS"                                    
 [560] "RASH"                                        
 [561] "PRURITUS"                                    
 [562] "RASH"                                        
 [563] "SKIN IRRITATION"                             
 [564] "SKIN IRRITATION"                             
 [565] "DIZZINESS"                                   
 [566] "APPLICATION SITE DERMATITIS"                 
 [567] "APPLICATION SITE DERMATITIS"                 
 [568] "PRURITUS"                                    
 [569] "COUGH"                                       
 [570] "APPLICATION SITE DERMATITIS"                 
 [571] "DIZZINESS"                                   
 [572] "ELECTROCARDIOGRAM T WAVE INVERSION"          
 [573] "DIZZINESS"                                   
 [574] "DIZZINESS"                                   
 [575] "HEADACHE"                                    
 [576] "DIARRHOEA"                                   
 [577] "APPLICATION SITE DERMATITIS"                 
 [578] "APPLICATION SITE PRURITUS"                   
 [579] "APPLICATION SITE DISCHARGE"                  
 [580] "HIP FRACTURE"                                
 [581] "COUGH"                                       
 [582] "UPPER RESPIRATORY TRACT INFECTION"           
 [583] "SKIN LESION EXCISION"                        
 [584] "BENIGN PROSTATIC HYPERPLASIA"                
 [585] "LOCALISED INFECTION"                         
 [586] "LOCALISED INFECTION"                         
 [587] "BLOOD URINE PRESENT"                         
 [588] "CYSTOSCOPY"                                  
 [589] "BENIGN PROSTATIC HYPERPLASIA"                
 [590] "PYREXIA"                                     
 [591] "DEHYDRATION"                                 
 [592] "HYPOTENSION"                                 
 [593] "ORTHOSTATIC HYPOTENSION"                     
 [594] "ORTHOSTATIC HYPOTENSION"                     
 [595] "HEMIANOPIA HOMONYMOUS"                       
 [596] "APPLICATION SITE DERMATITIS"                 
 [597] "APPLICATION SITE PRURITUS"                   
 [598] "APPLICATION SITE DERMATITIS"                 
 [599] "APPLICATION SITE PRURITUS"                   
 [600] "SINUS BRADYCARDIA"                           
 [601] "DIABETES MELLITUS"                           
 [602] "RASH"                                        
 [603] "APPLICATION SITE PRURITUS"                   
 [604] "RASH"                                        
 [605] "APPLICATION SITE PRURITUS"                   
 [606] "APPLICATION SITE IRRITATION"                 
 [607] "APPLICATION SITE IRRITATION"                 
 [608] "RASH"                                        
 [609] "APPLICATION SITE PRURITUS"                   
 [610] "DRUG ERUPTION"                               
 [611] "VOMITING"                                    
 [612] "VOMITING"                                    
 [613] "NASAL CONGESTION"                            
 [614] "NIGHTMARE"                                   
 [615] "RASH MACULO-PAPULAR"                         
 [616] "BIOPSY"                                      
 [617] "DIZZINESS"                                   
 [618] "DIZZINESS"                                   
 [619] "ALLERGIC GRANULOMATOUS ANGIITIS"             
 [620] "APPLICATION SITE PRURITUS"                   
 [621] "FEELING COLD"                                
 [622] "APPLICATION SITE DERMATITIS"                 
 [623] "ELECTROCARDIOGRAM ST SEGMENT DEPRESSION"     
 [624] "APPLICATION SITE BLEEDING"                   
 [625] "APPLICATION SITE DERMATITIS"                 
 [626] "APPLICATION SITE PRURITUS"                   
 [627] "VOMITING"                                    
 [628] "SYNCOPE"                                     
 [629] "COUGH"                                       
 [630] "DIZZINESS"                                   
 [631] "PYREXIA"                                     
 [632] "BLOOD ALKALINE PHOSPHATASE INCREASED"        
 [633] "SYNCOPE"                                     
 [634] "TRANSIENT ISCHAEMIC ATTACK"                  
 [635] "TRANSIENT ISCHAEMIC ATTACK"                  
 [636] "NEPHROLITHIASIS"                             
 [637] "PRURITUS"                                    
 [638] "SINUS BRADYCARDIA"                           
 [639] "SINUS BRADYCARDIA"                           
 [640] "FACIAL BONES FRACTURE"                       
 [641] "DIZZINESS"                                   
 [642] "SALIVARY HYPERSECRETION"                     
 [643] "SKIN IRRITATION"                             
 [644] "DIZZINESS"                                   
 [645] "URINARY TRACT INFECTION"                     
 [646] "FALL"                                        
 [647] "CONTUSION"                                   
 [648] "PRURITUS"                                    
 [649] "PRURITUS"                                    
 [650] "CHEST PAIN"                                  
 [651] "HAEMOPTYSIS"                                 
 [652] "HAEMOPTYSIS"                                 
 [653] "RALES"                                       
 [654] "RALES"                                       
 [655] "SKIN EXFOLIATION"                            
 [656] "SKIN EXFOLIATION"                            
 [657] "VOMITING"                                    
 [658] "NASOPHARYNGITIS"                             
 [659] "SKIN IRRITATION"                             
 [660] "PRURITUS"                                    
 [661] "NASOPHARYNGITIS"                             
 [662] "SKIN IRRITATION"                             
 [663] "PRURITUS"                                    
 [664] "RASH"                                        
 [665] "RASH"                                        
 [666] "ERYTHEMA"                                    
 [667] "ERYTHEMA"                                    
 [668] "PRURITUS"                                    
 [669] "RASH"                                        
 [670] "PRURITUS"                                    
 [671] "RASH"                                        
 [672] "NASAL CONGESTION"                            
 [673] "INSOMNIA"                                    
 [674] "INSOMNIA"                                    
 [675] "APPLICATION SITE INDURATION"                 
 [676] "APPLICATION SITE PRURITUS"                   
 [677] "APPLICATION SITE PRURITUS"                   
 [678] "FALL"                                        
 [679] "FALL"                                        
 [680] "HIP FRACTURE"                                
 [681] "GASTROINTESTINAL HAEMORRHAGE"                
 [682] "SUPRAVENTRICULAR EXTRASYSTOLES"              
 [683] "PRURITUS"                                    
 [684] "ERYTHEMA"                                    
 [685] "RASH"                                        
 [686] "APPLICATION SITE DERMATITIS"                 
 [687] "SKIN IRRITATION"                             
 [688] "AGITATION"                                   
 [689] "MYOCARDIAL INFARCTION"                       
 [690] "VERTIGO"                                     
 [691] "PRURITUS"                                    
 [692] "ERYTHEMA"                                    
 [693] "HEADACHE"                                    
 [694] "DIZZINESS"                                   
 [695] "MYOCARDIAL INFARCTION"                       
 [696] "SYNCOPE VASOVAGAL"                           
 [697] "HEADACHE"                                    
 [698] "NAUSEA"                                      
 [699] "SKIN IRRITATION"                             
 [700] "SKIN IRRITATION"                             
 [701] "FALL"                                        
 [702] "SKIN LACERATION"                             
 [703] "SYNCOPE"                                     
 [704] "COMPLEX PARTIAL SEIZURES"                    
 [705] "SYNCOPE"                                     
 [706] "SINUS BRADYCARDIA"                           
 [707] "ATRIOVENTRICULAR BLOCK FIRST DEGREE"         
 [708] "APPLICATION SITE IRRITATION"                 
 [709] "COUGH"                                       
 [710] "SHOULDER PAIN"                               
 [711] "APPLICATION SITE PRURITUS"                   
 [712] "PRURITUS"                                    
 [713] "PRURITUS"                                    
 [714] "PRURITUS"                                    
 [715] "ERYTHEMA"                                    
 [716] "COLD SWEAT"                                  
 [717] "CHILLS"                                      
 [718] "COLD SWEAT"                                  
 [719] "CHILLS"                                      
 [720] "COLD SWEAT"                                  
 [721] "CHILLS"                                      
 [722] "DIARRHOEA"                                   
 [723] "PRURITUS"                                    
 [724] "RASH"                                        
 [725] "ERYTHEMA"                                    
 [726] "PRURITUS"                                    
 [727] "MYOCARDIAL INFARCTION"                       
 [728] "DYSPNOEA"                                    
 [729] "ATRIAL FIBRILLATION"                         
 [730] "CARDIAC FAILURE CONGESTIVE"                  
 [731] "HYPONATRAEMIA"                               
 [732] "BURNING SENSATION"                           
 [733] "SOMNOLENCE"                                  
 [734] "RASH"                                        
 [735] "RASH"                                        
 [736] "APPLICATION SITE ERYTHEMA"                   
 [737] "APPLICATION SITE ERYTHEMA"                   
 [738] "VOMITING"                                    
 [739] "PRURITUS"                                    
 [740] "ERYTHEMA"                                    
 [741] "BLISTER"                                     
 [742] "APPLICATION SITE IRRITATION"                 
 [743] "NASOPHARYNGITIS"                             
 [744] "NASOPHARYNGITIS"                             
 [745] "RASH"                                        
 [746] "ERYTHEMA"                                    
 [747] "RASH"                                        
 [748] "ERYTHEMA"                                    
 [749] "PRURITUS"                                    
 [750] "PRURITUS"                                    
 [751] "ERYTHEMA"                                    
 [752] "PRURITUS"                                    
 [753] "RASH"                                        
 [754] "PRURITUS"                                    
 [755] "APPLICATION SITE DESQUAMATION"               
 [756] "HIP FRACTURE"                                
 [757] "HIP FRACTURE"                                
 [758] "DELUSION"                                    
 [759] "PSYCHOMOTOR HYPERACTIVITY"                   
 [760] "SUPRAVENTRICULAR TACHYCARDIA"                
 [761] "SUPRAVENTRICULAR TACHYCARDIA"                
 [762] "ATRIAL FIBRILLATION"                         
 [763] "ATRIOVENTRICULAR BLOCK FIRST DEGREE"         
 [764] "PRURITUS"                                    
 [765] "RASH"                                        
 [766] "BLISTER"                                     
 [767] "ELECTROCARDIOGRAM T WAVE AMPLITUDE DECREASED"
 [768] "NASOPHARYNGITIS"                             
 [769] "NASOPHARYNGITIS"                             
 [770] "ERYTHEMA"                                    
 [771] "ERYTHEMA"                                    
 [772] "APPLICATION SITE DERMATITIS"                 
 [773] "APPLICATION SITE PRURITUS"                   
 [774] "APPLICATION SITE PRURITUS"                   
 [775] "NASOPHARYNGITIS"                             
 [776] "APPLICATION SITE URTICARIA"                  
 [777] "APPLICATION SITE DERMATITIS"                 
 [778] "APPLICATION SITE PRURITUS"                   
 [779] "HEADACHE"                                    
 [780] "EAR INFECTION"                               
 [781] "EAR INFECTION"                               
 [782] "GLOSSITIS"                                   
 [783] "NASOPHARYNGITIS"                             
 [784] "APPLICATION SITE DERMATITIS"                 
 [785] "RASH PRURITIC"                               
 [786] "RASH PRURITIC"                               
 [787] "VENTRICULAR EXTRASYSTOLES"                   
 [788] "VENTRICULAR EXTRASYSTOLES"                   
 [789] "CONJUNCTIVAL HAEMORRHAGE"                    
 [790] "PARAESTHESIA ORAL"                           
 [791] "NASOPHARYNGITIS"                             
 [792] "NASOPHARYNGITIS"                             
 [793] "SUPRAVENTRICULAR EXTRASYSTOLES"              
 [794] "SUPRAVENTRICULAR EXTRASYSTOLES"              
 [795] "CERUMEN IMPACTION"                           
 [796] "ASTHENIA"                                    
 [797] "APPLICATION SITE ERYTHEMA"                   
 [798] "NAUSEA"                                      
 [799] "VOMITING"                                    
 [800] "NAUSEA"                                      
 [801] "VOMITING"                                    
 [802] "APPLICATION SITE ERYTHEMA"                   
 [803] "CATARACT OPERATION"                          
 [804] "APPLICATION SITE PRURITUS"                   
 [805] "BACK PAIN"                                   
 [806] "DELIRIUM"                                    
 [807] "RASH PRURITIC"                               
 [808] "RASH PRURITIC"                               
 [809] "ASTHENIA"                                    
 [810] "GASTROENTERITIS VIRAL"                       
 [811] "DYSURIA"                                     
 [812] "DYSPEPSIA"                                   
 [813] "URINARY TRACT INFECTION"                     
 [814] "URINARY TRACT INFECTION"                     
 [815] "ASTHENIA"                                    
 [816] "DYSPEPSIA"                                   
 [817] "PELVIC PAIN"                                 
 [818] "GASTROOESOPHAGEAL REFLUX DISEASE"            
 [819] "PELVIC PAIN"                                 
 [820] "VAGINAL MYCOSIS"                             
 [821] "CERVICITIS"                                  
 [822] "VAGINAL MYCOSIS"                             
 [823] "CERVICITIS"                                  
 [824] "ABDOMINAL PAIN"                              
 [825] "ABDOMINAL PAIN"                              
 [826] "APPLICATION SITE PRURITUS"                   
 [827] "DIZZINESS"                                   
 [828] "APPLICATION SITE DERMATITIS"                 
 [829] "APPLICATION SITE DERMATITIS"                 
 [830] "SHOULDER PAIN"                               
 [831] "RASH"                                        
 [832] "APPLICATION SITE ERYTHEMA"                   
 [833] "COUGH"                                       
 [834] "SHOULDER PAIN"                               
 [835] "RASH"                                        
 [836] "APPLICATION SITE IRRITATION"                 
 [837] "APPLICATION SITE IRRITATION"                 
 [838] "NAUSEA"                                      
 [839] "NAUSEA"                                      
 [840] "BRONCHITIS"                                  
 [841] "BUNDLE BRANCH BLOCK RIGHT"                   
 [842] "ELECTROCARDIOGRAM T WAVE INVERSION"          
 [843] "BUNDLE BRANCH BLOCK RIGHT"                   
 [844] "SUPRAVENTRICULAR EXTRASYSTOLES"              
 [845] "ELECTROCARDIOGRAM ST SEGMENT DEPRESSION"     
 [846] "SUPRAVENTRICULAR EXTRASYSTOLES"              
 [847] "SKIN IRRITATION"                             
 [848] "SKIN IRRITATION"                             
 [849] "APPLICATION SITE ERYTHEMA"                   
 [850] "APPLICATION SITE PRURITUS"                   
 [851] "APPLICATION SITE ERYTHEMA"                   
 [852] "APPLICATION SITE PRURITUS"                   
 [853] "APPLICATION SITE ERYTHEMA"                   
 [854] "APPLICATION SITE ERYTHEMA"                   
 [855] "HYPERHIDROSIS"                               
 [856] "HYPERHIDROSIS"                               
 [857] "DIARRHOEA"                                   
 [858] "DIARRHOEA"                                   
 [859] "SOMNOLENCE"                                  
 [860] "APPLICATION SITE PRURITUS"                   
 [861] "DYSURIA"                                     
 [862] "ARTHRALGIA"                                  
 [863] "SINUS BRADYCARDIA"                           
 [864] "DIZZINESS"                                   
 [865] "DIARRHOEA"                                   
 [866] "ERYTHEMA"                                    
 [867] "NASOPHARYNGITIS"                             
 [868] "COUGH"                                       
 [869] "BACK PAIN"                                   
 [870] "BACK PAIN"                                   
 [871] "SKIN IRRITATION"                             
 [872] "SKIN IRRITATION"                             
 [873] "PRURITUS"                                    
 [874] "ERYTHEMA"                                    
 [875] "EAR PAIN"                                    
 [876] "EAR PAIN"                                    
 [877] "PRURITUS"                                    
 [878] "ERYTHEMA"                                    
 [879] "DERMATITIS CONTACT"                          
 [880] "DERMATITIS CONTACT"                          
 [881] "SINUS BRADYCARDIA"                           
 [882] "NEPHROLITHIASIS"                             
 [883] "SINUS BRADYCARDIA"                           
 [884] "APPLICATION SITE REACTION"                   
 [885] "NAUSEA"                                      
 [886] "NAUSEA"                                      
 [887] "SINUS BRADYCARDIA"                           
 [888] "PALPITATIONS"                                
 [889] "HYPERHIDROSIS"                               
 [890] "DIZZINESS"                                   
 [891] "CONFUSIONAL STATE"                           
 [892] "SINUS BRADYCARDIA"                           
 [893] "SINUS BRADYCARDIA"                           
 [894] "NASOPHARYNGITIS"                             
 [895] "NASOPHARYNGITIS"                             
 [896] "EMPHYSEMA"                                   
 [897] "HYPERHIDROSIS"                               
 [898] "PRURITUS"                                    
 [899] "ELECTROCARDIOGRAM T WAVE INVERSION"          
 [900] "ELECTROCARDIOGRAM T WAVE INVERSION"          
 [901] "EAR INFECTION"                               
 [902] "ELECTROCARDIOGRAM T WAVE AMPLITUDE DECREASED"
 [903] "EAR INFECTION"                               
 [904] "DIARRHOEA"                                   
 [905] "DIARRHOEA"                                   
 [906] "CONFUSIONAL STATE"                           
 [907] "RESTLESSNESS"                                
 [908] "RESTLESSNESS"                                
 [909] "LETHARGY"                                    
 [910] "HYPERHIDROSIS"                               
 [911] "FATIGUE"                                     
 [912] "PRURITUS"                                    
 [913] "PRURITUS"                                    
 [914] "SYNCOPE"                                     
 [915] "HYPERSOMNIA"                                 
 [916] "FATIGUE"                                     
 [917] "ATRIAL FLUTTER"                              
 [918] "BUNDLE BRANCH BLOCK RIGHT"                   
 [919] "VENTRICULAR SEPTAL DEFECT"                   
 [920] "BLISTER"                                     
 [921] "BLISTER"                                     
 [922] "PRURITUS"                                    
 [923] "BLISTER"                                     
 [924] "ERYTHEMA"                                    
 [925] "ELECTROCARDIOGRAM ST SEGMENT DEPRESSION"     
 [926] "PRURITUS"                                    
 [927] "PRURITUS"                                    
 [928] "ERYTHEMA"                                    
 [929] "MALIGNANT FIBROUS HISTIOCYTOMA"              
 [930] "MALIGNANT FIBROUS HISTIOCYTOMA"              
 [931] "UPPER RESPIRATORY TRACT INFECTION"           
 [932] "UPPER RESPIRATORY TRACT INFECTION"           
 [933] "ERYTHEMA"                                    
 [934] "PRURITUS"                                    
 [935] "PRURITUS"                                    
 [936] "ERYTHEMA"                                    
 [937] "PRURITUS"                                    
 [938] "SWELLING"                                    
 [939] "BLISTER"                                     
 [940] "HYPERSENSITIVITY"                            
 [941] "HYPERSENSITIVITY"                            
 [942] "PROSTATE CANCER"                             
 [943] "HALLUCINATION"                               
 [944] "DELUSION"                                    
 [945] "PRURITUS"                                    
 [946] "PRURITUS"                                    
 [947] "BLOOD CHOLESTEROL INCREASED"                 
 [948] "ERYTHEMA"                                    
 [949] "PRURITUS"                                    
 [950] "ERYTHEMA"                                    
 [951] "PRURITUS"                                    
 [952] "BLISTER"                                     
 [953] "BLISTER"                                     
 [954] "ERYTHEMA"                                    
 [955] "ABDOMINAL PAIN"                              
 [956] "ULCER"                                       
 [957] "ERYTHEMA"                                    
 [958] "ERYTHEMA"                                    
 [959] "PRURITUS"                                    
 [960] "ERYTHEMA"                                    
 [961] "PRURITUS"                                    
 [962] "COGNITIVE DISORDER"                          
 [963] "HEADACHE"                                    
 [964] "VISION BLURRED"                              
 [965] "HEADACHE"                                    
 [966] "VISION BLURRED"                              
 [967] "URTICARIA"                                   
 [968] "ERYTHEMA"                                    
 [969] "URTICARIA"                                   
 [970] "PRURITUS"                                    
 [971] "HEADACHE"                                    
 [972] "HEADACHE"                                    
 [973] "ERYTHEMA"                                    
 [974] "ERYTHEMA"                                    
 [975] "PRURITUS"                                    
 [976] "HYPERHIDROSIS"                               
 [977] "ELECTROCARDIOGRAM T WAVE INVERSION"          
 [978] "CHEST PAIN"                                  
 [979] "COUGH"                                       
 [980] "FATIGUE"                                     
 [981] "COUGH"                                       
 [982] "BACK PAIN"                                   
 [983] "RHINORRHOEA"                                 
 [984] "SKIN IRRITATION"                             
 [985] "ANXIETY"                                     
 [986] "IRRITABILITY"                                
 [987] "RHINORRHOEA"                                 
 [988] "SKIN IRRITATION"                             
 [989] "SKIN IRRITATION"                             
 [990] "SKIN IRRITATION"                             
 [991] "SINUS BRADYCARDIA"                           
 [992] "SKIN IRRITATION"                             
 [993] "WOUND"                                       
 [994] "WOUND"                                       
 [995] "INCREASED APPETITE"                          
 [996] "INCREASED APPETITE"                          
 [997] "SKIN IRRITATION"                             
 [998] "HYPERHIDROSIS"                               
 [999] "CONFUSIONAL STATE"                           
[1000] "INSOMNIA"                                    
 [ reached getOption("max.print") -- omitted 191 entries ]
attr(,"label")
[1] "Reported Term for the Adverse Event"
# A tibble: 1,191 × 6
   USUBJID     ACTARM               AESOC          AETERM TRTEMFL SAFFL
   <chr>       <chr>                <chr>          <chr>  <chr>   <chr>
 1 01-701-1015 Placebo              GENERAL DISOR… APPLI… Y       Y    
 2 01-701-1015 Placebo              GENERAL DISOR… APPLI… Y       Y    
 3 01-701-1015 Placebo              GASTROINTESTI… DIARR… Y       Y    
 4 01-701-1023 Placebo              SKIN AND SUBC… ERYTH… Y       Y    
 5 01-701-1023 Placebo              SKIN AND SUBC… ERYTH… Y       Y    
 6 01-701-1023 Placebo              SKIN AND SUBC… ERYTH… Y       Y    
 7 01-701-1023 Placebo              CARDIAC DISOR… ATRIO… Y       Y    
 8 01-701-1028 Xanomeline High Dose GENERAL DISOR… APPLI… Y       Y    
 9 01-701-1028 Xanomeline High Dose GENERAL DISOR… APPLI… Y       Y    
10 01-701-1034 Xanomeline High Dose GENERAL DISOR… APPLI… Y       Y    
# ℹ 1,181 more rows
# ℹ Use `print(n = ...)` to see more rows
Error in install.packages : Updating loaded packages
                          
 [973] "ERYTHEMA"                                    
 [974] "ERYTHEMA"                                    
 [975] "PRURITUS"                                    
 [976] "HYPERHIDROSIS"                               
 [977] "ELECTROCARDIOGRAM T WAVE INVERSION"          
 [978] "CHEST PAIN"                                  
 [979] "COUGH"                                       
 [980] "FATIGUE"                                     
 [981] "COUGH"                                       
 [982] "BACK PAIN"                                   
 [983] "RHINORRHOEA"                                 
 [984] "SKIN IRRITATION"                             
 [985] "ANXIETY"                                     
 [986] "IRRITABILITY"                                
 [987] "RHINORRHOEA"                                 
 [988] "SKIN IRRITATION"                             
 [989] "SKIN IRRITATION"                             
 [990] "SKIN IRRITATION"                             
 [991] "SINUS BRADYCARDIA"                           
 [992] "SKIN IRRITATION"                             
 [993] "WOUND"                                       
 [994] "WOUND"                                       
 [995] "INCREASED APPETITE"                          
 [996] "INCREASED APPETITE"                          
 [997] "SKIN IRRITATION"                             
 [998] "HYPERHIDROSIS"                               
 [999] "CONFUSIONAL STATE"                           
[1000] "INSOMNIA"                                    
 [ reached getOption("max.print") -- omitted 191 entries ]
attr(,"label")
[1] "Reported Term for the Adverse Event"
# A tibble: 1,191 × 6
   USUBJID     ACTARM               AESOC          AETERM TRTEMFL SAFFL
   <chr>       <chr>                <chr>          <chr>  <chr>   <chr>
 1 01-701-1015 Placebo              GENERAL DISOR… APPLI… Y       Y    
 2 01-701-1015 Placebo              GENERAL DISOR… APPLI… Y       Y    
 3 01-701-1015 Placebo              GASTROINTESTI… DIARR… Y       Y    
 4 01-701-1023 Placebo              SKIN AND SUBC… ERYTH… Y       Y    
 5 01-701-1023 Placebo              SKIN AND SUBC… ERYTH… Y       Y    
 6 01-701-1023 Placebo              SKIN AND SUBC… ERYTH… Y       Y    
 7 01-701-1023 Placebo              CARDIAC DISOR… ATRIO… Y       Y    
 8 01-701-1028 Xanomeline High Dose GENERAL DISOR… APPLI… Y       Y    
 9 01-701-1028 Xanomeline High Dose GENERAL DISOR… APPLI… Y       Y    
10 01-701-1034 Xanomeline High Dose GENERAL DISOR… APPLI… Y       Y    
# ℹ 1,181 more rows
# ℹ Use `print(n = ...)` to see more rows
Error in install.packages : Updating loaded packages
ZZINESS"                                   
 [891] "CONFUSIONAL STATE"                           
 [892] "SINUS BRADYCARDIA"                           
 [893] "SINUS BRADYCARDIA"                           
 [894] "NASOPHARYNGITIS"                             
 [895] "NASOPHARYNGITIS"                             
 [896] "EMPHYSEMA"                                   
 [897] "HYPERHIDROSIS"                               
 [898] "PRURITUS"                                    
 [899] "ELECTROCARDIOGRAM T WAVE INVERSION"          
 [900] "ELECTROCARDIOGRAM T WAVE INVERSION"          
 [901] "EAR INFECTION"                               
 [902] "ELECTROCARDIOGRAM T WAVE AMPLITUDE DECREASED"
 [903] "EAR INFECTION"                               
 [904] "DIARRHOEA"                                   
 [905] "DIARRHOEA"                                   
 [906] "CONFUSIONAL STATE"                           
 [907] "RESTLESSNESS"                                
 [908] "RESTLESSNESS"                                
 [909] "LETHARGY"                                    
 [910] "HYPERHIDROSIS"                               
 [911] "FATIGUE"                                     
 [912] "PRURITUS"                                    
 [913] "PRURITUS"                                    
 [914] "SYNCOPE"                                     
 [915] "HYPERSOMNIA"                                 
 [916] "FATIGUE"                                     
 [917] "ATRIAL FLUTTER"                              
 [918] "BUNDLE BRANCH BLOCK RIGHT"                   
 [919] "VENTRICULAR SEPTAL DEFECT"                   
 [920] "BLISTER"                                     
 [921] "BLISTER"                                     
 [922] "PRURITUS"                                    
 [923] "BLISTER"                                     
 [924] "ERYTHEMA"                                    
 [925] "ELECTROCARDIOGRAM ST SEGMENT DEPRESSION"     
 [926] "PRURITUS"                                    
 [927] "PRURITUS"                                    
 [928] "ERYTHEMA"                                    
 [929] "MALIGNANT FIBROUS HISTIOCYTOMA"              
 [930] "MALIGNANT FIBROUS HISTIOCYTOMA"              
 [931] "UPPER RESPIRATORY TRACT INFECTION"           
 [932] "UPPER RESPIRATORY TRACT INFECTION"           
 [933] "ERYTHEMA"                                    
 [934] "PRURITUS"                                    
 [935] "PRURITUS"                                    
 [936] "ERYTHEMA"                                    
 [937] "PRURITUS"                                    
 [938] "SWELLING"                                    
 [939] "BLISTER"                                     
 [940] "HYPERSENSITIVITY"                            
 [941] "HYPERSENSITIVITY"                            
 [942] "PROSTATE CANCER"                             
 [943] "HALLUCINATION"                               
 [944] "DELUSION"                                    
 [945] "PRURITUS"                                    
 [946] "PRURITUS"                                    
 [947] "BLOOD CHOLESTEROL INCREASED"                 
 [948] "ERYTHEMA"                                    
 [949] "PRURITUS"                                    
 [950] "ERYTHEMA"                                    
 [951] "PRURITUS"                                    
 [952] "BLISTER"                                     
 [953] "BLISTER"                                     
 [954] "ERYTHEMA"                                    
 [955] "ABDOMINAL PAIN"                              
 [956] "ULCER"                                       
 [957] "ERYTHEMA"                                    
 [958] "ERYTHEMA"                                    
 [959] "PRURITUS"                                    
 [960] "ERYTHEMA"                                    
 [961] "PRURITUS"                                    
 [962] "COGNITIVE DISORDER"                          
 [963] "HEADACHE"                                    
 [964] "VISION BLURRED"                              
 [965] "HEADACHE"                                    
 [966] "VISION BLURRED"                              
 [967] "URTICARIA"                                   
 [968] "ERYTHEMA"                                    
 [969] "URTICARIA"                                   
 [970] "PRURITUS"                                    
 [971] "HEADACHE"                                    
 [972] "HEADACHE"                                    
 [973] "ERYTHEMA"                                    
 [974] "ERYTHEMA"                                    
 [975] "PRURITUS"                                    
 [976] "HYPERHIDROSIS"                               
 [977] "ELECTROCARDIOGRAM T WAVE INVERSION"          
 [978] "CHEST PAIN"                                  
 [979] "COUGH"                                       
 [980] "FATIGUE"                                     
 [981] "COUGH"                                       
 [982] "BACK PAIN"                                   
 [983] "RHINORRHOEA"                                 
 [984] "SKIN IRRITATION"                             
 [985] "ANXIETY"                                     
 [986] "IRRITABILITY"                                
 [987] "RHINORRHOEA"                                 
 [988] "SKIN IRRITATION"                             
 [989] "SKIN IRRITATION"                             
 [990] "SKIN IRRITATION"                             
 [991] "SINUS BRADYCARDIA"                           
 [992] "SKIN IRRITATION"                             
 [993] "WOUND"                                       
 [994] "WOUND"                                       
 [995] "INCREASED APPETITE"                          
 [996] "INCREASED APPETITE"                          
 [997] "SKIN IRRITATION"                             
 [998] "HYPERHIDROSIS"                               
 [999] "CONFUSIONAL STATE"                           
[1000] "INSOMNIA"                                    
 [ reached getOption("max.print") -- omitted 191 entries ]
attr(,"label")
[1] "Reported Term for the Adverse Event"
# A tibble: 1,191 × 6
   USUBJID     ACTARM               AESOC          AETERM TRTEMFL SAFFL
   <chr>       <chr>                <chr>          <chr>  <chr>   <chr>
 1 01-701-1015 Placebo              GENERAL DISOR… APPLI… Y       Y    
 2 01-701-1015 Placebo              GENERAL DISOR… APPLI… Y       Y    
 3 01-701-1015 Placebo              GASTROINTESTI… DIARR… Y       Y    
 4 01-701-1023 Placebo              SKIN AND SUBC… ERYTH… Y       Y    
 5 01-701-1023 Placebo              SKIN AND SUBC… ERYTH… Y       Y    
 6 01-701-1023 Placebo              SKIN AND SUBC… ERYTH… Y       Y    
 7 01-701-1023 Placebo              CARDIAC DISOR… ATRIO… Y       Y    
 8 01-701-1028 Xanomeline High Dose GENERAL DISOR… APPLI… Y       Y    
 9 01-701-1028 Xanomeline High Dose GENERAL DISOR… APPLI… Y       Y    
10 01-701-1034 Xanomeline High Dose GENERAL DISOR… APPLI… Y       Y    
# ℹ 1,181 more rows
# ℹ Use `print(n = ...)` to see more rows
Error in install.packages : Updating loaded packages
                    
 [955] "ABDOMINAL PAIN"                              
 [956] "ULCER"                                       
 [957] "ERYTHEMA"                                    
 [958] "ERYTHEMA"                                    
 [959] "PRURITUS"                                    
 [960] "ERYTHEMA"                                    
 [961] "PRURITUS"                                    
 [962] "COGNITIVE DISORDER"                          
 [963] "HEADACHE"                                    
 [964] "VISION BLURRED"                              
 [965] "HEADACHE"                                    
 [966] "VISION BLURRED"                              
 [967] "URTICARIA"                                   
 [968] "ERYTHEMA"                                    
 [969] "URTICARIA"                                   
 [970] "PRURITUS"                                    
 [971] "HEADACHE"                                    
 [972] "HEADACHE"                                    
 [973] "ERYTHEMA"                                    
 [974] "ERYTHEMA"                                    
 [975] "PRURITUS"                                    
 [976] "HYPERHIDROSIS"                               
 [977] "ELECTROCARDIOGRAM T WAVE INVERSION"          
 [978] "CHEST PAIN"                                  
 [979] "COUGH"                                       
 [980] "FATIGUE"                                     
 [981] "COUGH"                                       
 [982] "BACK PAIN"                                   
 [983] "RHINORRHOEA"                                 
 [984] "SKIN IRRITATION"                             
 [985] "ANXIETY"                                     
 [986] "IRRITABILITY"                                
 [987] "RHINORRHOEA"                                 
 [988] "SKIN IRRITATION"                             
 [989] "SKIN IRRITATION"                             
 [990] "SKIN IRRITATION"                             
 [991] "SINUS BRADYCARDIA"                           
 [992] "SKIN IRRITATION"                             
 [993] "WOUND"                                       
 [994] "WOUND"                                       
 [995] "INCREASED APPETITE"                          
 [996] "INCREASED APPETITE"                          
 [997] "SKIN IRRITATION"                             
 [998] "HYPERHIDROSIS"                               
 [999] "CONFUSIONAL STATE"                           
[1000] "INSOMNIA"                                    
 [ reached getOption("max.print") -- omitted 191 entries ]
attr(,"label")
[1] "Reported Term for the Adverse Event"
# A tibble: 1,191 × 6
   USUBJID     ACTARM               AESOC          AETERM TRTEMFL SAFFL
   <chr>       <chr>                <chr>          <chr>  <chr>   <chr>
 1 01-701-1015 Placebo              GENERAL DISOR… APPLI… Y       Y    
 2 01-701-1015 Placebo              GENERAL DISOR… APPLI… Y       Y    
 3 01-701-1015 Placebo              GASTROINTESTI… DIARR… Y       Y    
 4 01-701-1023 Placebo              SKIN AND SUBC… ERYTH… Y       Y    
 5 01-701-1023 Placebo              SKIN AND SUBC… ERYTH… Y       Y    
 6 01-701-1023 Placebo              SKIN AND SUBC… ERYTH… Y       Y    
 7 01-701-1023 Placebo              CARDIAC DISOR… ATRIO… Y       Y    
 8 01-701-1028 Xanomeline High Dose GENERAL DISOR… APPLI… Y       Y    
 9 01-701-1028 Xanomeline High Dose GENERAL DISOR… APPLI… Y       Y    
10 01-701-1034 Xanomeline High Dose GENERAL DISOR… APPLI… Y       Y    
# ℹ 1,181 more rows
# ℹ Use `print(n = ...)` to see more rows
Error in install.packages : Updating loaded packages
